ax,ay,az,gx,gy,gz
-3.742137,-13.45063,0.9050082,3.564885,-26.27481,-38.9084
-3.330335,-11.3126,-0.1747767,-38.08397,-26.55725,-60.64885
-1.096544,-9.188946,-0.4596867,-80.38931,-5.251908,-72.63359
3.150769,-7.912837,-1.000776,-52.51908,8.290076,-35.05344
3.761291,-9.406818,-2.116474,-17.86259,0.870229,-9.702291
1.556231,-10.49139,-2.413355,12.92366,15.63359,3.503817
0.5602432,-9.414001,-0.9433154,-0.2519084,8.091603,-1.725191
0.878672,-9.880871,-1.702277,4.320611,6.19084,-3.587786
0.8283938,-9.449914,-1.21386,2.10687,-2.19084,-1.251908
0.8355764,-9.579201,-1.460463,0.2900764,-7.167939,-3.267176
1.151611,-9.631873,-1.551443,4.992366,-8.335877,-3.923664
1.00317,-9.866506,-1.45328,4.374046,-7.832061,-3.679389
1.278504,-9.813833,-1.340753,2.854962,-4.946565,-1.801527
1.077391,-9.68694,-1.280898,-1.816794,1.412214,-2.664122
1.221043,-9.672575,-1.35033,-6.335878,5.160306,-2.70229
1.108515,-9.804255,-1.520318,-2.862595,7.061069,-2.48855
0.9672575,-9.785102,-1.295263,-2.427481,3.458015,-2.473282
0.8403648,-9.722853,-1.302446,-2.580153,0.8015267,-3.282443
0.6607997,-9.674969,-1.216254,-4.496183,-1.564886,-4.625954
0.8140285,-9.749189,-1.331176,-5.870229,-6.480916,-5.320611
0.8619126,-9.742006,-1.537078,-1.603053,-11.28244,-4.534351
1.077391,-9.708488,-1.553837,-2.396947,-11.77099,-4.328244
1.642422,-9.586384,-1.695095,-4.068702,-7.648855,-5.389313
1.620875,-9.390059,-1.582567,-7.70229,-3.061069,-2.923664
1.134852,-9.536105,-1.798046,-13.70992,-2.549618,-3.862595
1.608904,-9.583989,-1.987187,-11.62595,5.91603,-5.923664
2.035071,-9.583989,-2.13084,-6.389313,12.84733,-2.862595
1.426944,-9.840169,-2.008735,-3.259542,16.41221,-2.824427
1.118092,-9.61272,-1.383849,-4.305344,13.35114,-2.480916
1.21386,-9.65821,-1.814805,-3.053435,10.0916,-3.0
1.268927,-9.560047,-1.915361,-2.091603,10.20611,-1.931298
1.446098,-9.574412,-1.917756,-2.480916,8.335877,-2.984733
1.640028,-9.488221,-1.84593,-2.305344,8.625955,-5.557252
1.70946,-9.591172,-2.149993,-0.07633588,9.106871,-5.580153
1.673547,-9.255983,-1.644816,1.480916,5.572519,-3.679389
1.288081,-9.579201,-1.42455,-0.1832061,0.3816794,-4.068702
1.551443,-9.55047,-1.601721,-1.801527,-5.687023,-6.038168
2.087744,-9.423578,-1.608904,-4.21374,-4.755725,-8.916031
2.810793,-9.497798,-1.620875,-7.938931,2.053435,-9.870229
2.272097,-9.603143,-0.8954314,-2.503817,0.6717557,-6.19084
0.842759,-10.9822,-0.6751649,-1.938931,-12.29771,-12.54962
1.805228,-10.13226,-1.170765,4.625954,-23.07634,-18.74046
2.652776,-8.961497,-1.06542,8.122137,-24.22901,-16.45038
2.676718,-9.32781,-1.01993,7.587786,-24.14504,-16.8855
2.750938,-9.495404,-0.6105214,7.259542,-27.80153,-14.66412
2.743755,-9.392453,-0.2753332,10.96183,-35.82443,-10.87023
1.446098,-10.21845,0.533907,22.66412,-53.61832,-7.351145
0.4453215,-9.502586,0.1053449,16.80916,-82.52672,-3.534351
3.292027,-7.005434,-0.593762,8.374045,-69.75572,-11.32061
4.424485,-11.89439,-4.242526,-20.0229,-39.62595,-30.57252
4.010288,-9.205706,-2.770091,27.57252,-45.9542,13.98473
0.4620809,-7.639898,-0.5434838,13.54962,-62.73283,3.419847
0.7278373,-8.983045,-1.307234,-6.320611,-63.82443,-8.206107
2.396596,-9.643845,-2.896984,6.122138,-59.9771,6.145038
1.563414,-9.337387,-2.703054,14.80916,-65.24428,8.496183
1.070208,-9.449914,-2.317587,8.160305,-64.01527,-0.1603053
2.197877,-9.131485,-2.291251,9.274809,-61.33588,7.343512
1.96564,-9.112331,-2.731784,10.61069,-55.13741,12.67176
1.098939,-8.995016,-2.619257,5.938931,-53.65649,10.25191
0.9600749,-9.215282,-2.468422,1.007634,-52.48092,9.259542
1.364695,-9.469068,-2.513912,4.175572,-49.33588,12.81679
1.290475,-9.093178,-2.126051,3.877863,-45.87786,16.74809
1.517924,-8.726865,-1.769315,5.099236,-40.37405,20.29771
0.7254431,-9.239224,-1.862689,1.618321,-38.66412,22.33588
1.25935,-9.074024,-1.915361,2.656489,-31.65649,22.39695
1.381454,-7.438785,-1.134852,0.6030535,-25.48855,30.03053
0.7781156,-7.524976,-1.932121,-13.0229,-22.10687,32.23664
0.1604115,-7.529764,-1.721431,-4.48855,-35.03817,36.67939
-2.087744,-8.010999,-0.8619126,-8.022901,-62.12214,28.96183
-0.842759,-7.220912,-1.450886,-14.66412,-54.28244,9.007633
3.818752,-7.256825,-2.183512,1.137405,-17.23664,12.45038
3.076549,-5.461174,-1.802834,-6.038168,-8.763359,33.9771
-1.058237,-5.17387,-1.915361,-11.38168,-7.015267,31.74046
-2.303222,-2.906561,-2.037466,-42.03053,-12.32061,20.29771
0.8714894,-1.891419,-0.2226608,-58.51908,6.152672,23.80916
-2.806004,0.1101333,-1.63524,-96.12214,-26.80916,42.41985
2.477999,10.58477,-19.6133,-250.1374,209.2748,-82.94656
-2.557007,-16.96292,-6.902483,30.78626,-154.1221,226.229
-10.45308,-2.382231,17.7554,-250.1374,-6.763359,-92.58015
10.8601,-10.03889,4.685453,-153.4886,-59.70992,53.30534
-17.84398,-4.522647,2.640805,-208.8397,-250.1374,113.6336
-19.6133,-14.18565,-17.93497,-66.40458,-250.1374,3.259542
0.3854665,-13.68765,-19.6133,179.6488,-121.4198,84.58015
-19.6133,4.589684,-15.29416,-75.44275,-113.2748,219.5496
-3.591303,-17.00841,-0.8379706,100.5725,-96.03817,116.145
-6.725313,-10.90319,4.649539,64.23664,-138.3817,56.78626
-12.61984,4.240131,-6.902483,89.96947,-53.12977,79.33588
-9.622296,-4.479551,-1.987187,73.74046,-18.12214,52.58779
-9.94312,2.027889,0.593762,98.80916,-22.09924,76.99236
-10.58955,0.4932055,-2.511518,101.3893,-5.59542,54.49618
-10.54167,-0.2561796,-1.21386,55.59542,-47.51908,51.61069
-11.49217,-0.7110779,-0.6009446,21.87023,-37.9084,30.73282
-10.15381,-1.862689,-2.494758,43.21374,-32.40458,8.832061
-10.79067,-1.118092,-0.56982,38.80153,-18.12214,-16.13741
-9.744401,-1.312023,0.3687071,25.64122,15.78626,-36.35878
-10.61589,-1.750161,-0.5315128,16.56489,18.67939,-39.15267
-8.978256,-1.73819,-0.1101333,24.30534,28.45038,-37.99237
-9.610326,-2.65517,0.2753332,5.526718,64.93893,-11.14504
-8.602366,-2.394202,-1.960851,6.473282,46.29771,-18.33588
-8.051701,-2.916138,-1.570596,2.145038,32.77863,4.931298
-9.100361,-2.463634,-0.7326257,-21.23664,25.0458,11.23664
-10.06044,-2.695871,-2.552219,-18.58779,6.648855,12.71756
-9.921572,-2.418144,-2.109292,-16.84733,-6.450382,7.847328
-9.801862,-2.37026,-1.778892,-13.54198,4.335878,10.9084
-9.476251,-1.764527,-2.006341,-15.69466,-7.351145,10.76336
-9.900024,-1.991976,-1.826776,-13.53435,-3.091603,11.80916
-9.739613,-1.711854,-1.656788,-20.16794,-0.4885496,17.70229
-9.639056,-2.446874,-2.190695,-19.71756,11.73282,21.25191
-10.00058,-2.013524,-2.44448,-20.58015,13.38168,23.52672
-10.10353,-1.719037,-2.513912,-13.27481,-0.3740458,16.67175
-9.651027,-1.400608,-2.003947,-3.648855,-6.717557,12.26718
-9.923966,-1.233014,-1.910573,-5.580153,-3.290076,12.61832
-10.13705,-1.216254,-2.274492,-5.80916,-7.687023,9.923664
-10.38844,-0.9337386,-2.121263,-3.587786,-10.19847,1.984733
-9.979033,-0.9457096,-1.929727,-6.21374,-14.51908,6.671756
-9.737218,-1.051055,-1.843535,-6.129771,-11.67939,1.839695
-9.56723,-1.070208,-1.817199,-5.366412,-8.633588,0.2442748
-9.564836,-0.9504981,-1.553837,-10.45802,1.587786,2.259542
-9.574412,-1.024718,-1.438915,-18.00763,5.954198,7.450382
-10.23521,-1.029507,-1.867477,-15.57252,17.31298,5.969466
-9.981427,-1.244985,-2.104503,-12.74046,23.47328,8.633588
-9.749189,-0.8523358,-2.27928,-11.48092,26.35114,11.96947
-9.866506,-0.794875,-2.30801,-10.16794,23.32061,13.90076
-9.928755,-0.5674258,-2.533065,-9.816793,14.78626,13.61069
-9.931149,-0.4548983,-2.779668,-5.572519,12.82443,9.427481
-9.981427,-0.3974375,-2.913743,-2.923664,6.389313,6.534351
-9.892841,-0.308852,-2.832341,-3.938931,-0.3816794,6.465649
-9.797073,-0.2657564,-2.746149,-2.740458,-3.427481,4.633588
-9.952697,-0.2226608,-2.698265,-3.076336,-0.6641222,0.6335878
-9.80665,-0.3064578,-2.669535,-3.244275,1.648855,1.908397
-9.830592,-0.2801216,-2.693477,-2.458015,5.282443,2.083969
-9.847352,-0.1915361,-2.715025,-0.8396947,4.870229,0.1755725
-9.830592,-0.2753332,-2.844312,-0.2519084,0.9694656,-0.8015267
-9.73243,-0.2346318,-2.765303,-1.045802,-0.6641222,-0.2824428
-9.746795,-0.2418144,-2.676718,-1.259542,-2.183206,-0.1679389
-9.76116,-0.2418144,-2.858677,-0.8625955,-2.083969,0.6946565
-9.787497,-0.2466028,-2.657564,-0.8625955,-0.09160305,0.870229
-9.744401,-0.2537854,-2.772485,-0.9007633,1.083969,0.8091603
-9.866506,-0.2154782,-2.636016,-1.099237,1.534351,-0.259542
-9.794679,-0.1819593,-2.77488,-0.2213741,1.396947,-1.015267
-9.753978,-0.2394202,-2.719813,-0.4351145,0.3969466,0.1145038
-9.684546,-0.2777274,-2.674323,-1.076336,-0.1755725,1.557252
-9.730036,-0.1915361,-2.705448,-0.832061,0.6335878,-0.2671756
-9.77792,-0.2442086,-2.841918,-0.08396947,-0.8778625,-0.8015267
-9.701305,-0.2202666,-2.772485,-0.4656488,-0.9847328,-0.480916
-9.753978,-0.1699883,-2.731784,-0.4961832,-0.4122138,0.2442748
-9.80665,-0.2585738,-2.710236,-0.2061069,-1.198473,-0.259542
-9.916783,-0.2178724,-2.846706,0.5648855,-4.198473,-2.374046
-9.720459,-0.1987187,-2.679112,0.2519084,-3.022901,-1.625954
-9.765948,-0.2154782,-2.695871,-0.1832061,-0.5496183,-0.5648855
-9.837775,-0.225055,-2.707842,-0.4274809,0.1832061,-0.1984733
-9.809045,-0.2154782,-2.777274,-0.648855,1.335878,1.526718
-9.746795,-0.2777274,-2.590526,-0.8625955,2.114504,1.374046
-9.720459,-0.2681506,-2.578555,-0.129771,1.862595,-0.6641222
-9.775525,-0.2537854,-2.676718,0.648855,-0.3587786,0.3129771
-9.923966,-0.2154782,-2.772485,-0.9847328,-1.221374,1.053435
-9.703699,-0.2346318,-2.722207,-0.2824428,0.9236641,1.099237
-9.828198,-0.213084,-2.695871,-0.3664122,1.992366,0.2213741
-9.85214,-0.1891419,-2.63841,-0.4580153,-0.09923664,-0.6564885
-9.794679,-0.2681506,-2.624045,-0.4961832,-2.305344,-0.6946565
-9.825804,-0.2082956,-2.585738,-0.4503817,-2.206107,-0.5648855
-9.809045,-0.2082956,-2.669535,-0.5496183,-2.122137,-0.480916
-9.794679,-0.2753332,-2.614468,-1.099237,-1.59542,1.244275
-10.04607,-0.1508347,-2.640805,-0.6335878,0.09923664,-0.9312977
-9.835381,-0.1819593,-2.667141,-0.8244275,-0.2290076,0.09923664
-9.787497,-0.1747767,-2.633622,-0.5496183,-0.3358779,-0.3358779
-9.792285,-0.1987187,-2.545036,-0.5954198,-0.8244275,0.259542
-9.797073,-0.1843535,-2.58095,-0.5801527,-0.9236641,0.1068702
-9.792285,-0.260968,-2.650381,-0.2137404,-0.2137404,-0.129771
-9.825804,-0.1771709,-2.578555,-0.1603053,0.8244275,-0.7633588
-9.811439,-0.260968,-2.542642,-0.3435115,0.1221374,0.129771
-9.794679,-0.2322376,-2.504335,-1.007634,0.7175572,1.175573
-9.818622,-0.1867477,-2.588132,-0.8091603,1.419847,1.114504
-9.873688,-0.1699883,-2.698265,-0.778626,1.412214,0.08396947
-9.813833,-0.2082956,-2.600103,-0.6259542,0.4732824,-0.4427481
