ax,ay,az,gx,gy,gz
-0.5051765,-8.39886,-5.849035,-5.687023,0.6030535,-1.427481
-0.2944868,-8.367735,-5.781997,6.305344,-7.534351,0.8167939
-0.9169792,-8.101978,-5.530606,-6.465649,-0.6717557,-11.92366
0.3471592,-8.152257,-6.05733,-1.312977,3.282443,3.396947
-0.3256114,-8.087613,-4.936844,10.14504,3.099237,-1.114504
0.04788403,-8.451532,-5.664681,-4.251908,2.755725,-1.183206
-0.08140286,-8.367735,-5.825093,-1.801527,1.534351,0.259542
-0.2082956,-8.298303,-5.470751,3.778626,1.305344,1.618321
-0.1508347,-8.341399,-5.592855,-0.04580153,-1.236641,6.152672
-0.01436521,-8.013393,-5.360618,-11.94656,0.4045802,10.91603
0.08140286,-8.291121,-6.282385,-10.44275,6.587786,15.75572
-1.06542,-8.128315,-5.691018,-15.59542,6.969466,5.206107
-0.3663129,-7.836222,-6.397307,-16.78626,4.427481,10.50382
-0.8140285,-7.615956,-6.14831,-19.32061,6.534351,19.48855
-1.118092,-7.805098,-6.998251,-5.900764,15.62595,-1.465649
-1.012747,-7.441179,-6.428432,-21.94657,13.41221,6.908397
-0.9409212,-7.443573,-6.962338,-29.17557,-3.167939,-2.656489
-1.074997,-7.319075,-7.352593,-6.312977,-16.33588,-26.20611
-0.593762,-6.732495,-7.369353,9.473283,-25.46565,-18.22901
-0.7781156,-6.576872,-7.115568,-6.671756,-26.81679,-14.35114
-1.091756,-6.782773,-7.307104,-10.80916,-26.67939,-18.61832
-0.9552865,-6.969521,-7.249643,-10.12214,-24.23664,-15.00763
-0.8236053,-6.725313,-7.450756,-12.87023,-15.07634,-7.923664
-1.209072,-7.029376,-7.563283,1.679389,-7.427481,0.1755725
-1.668759,-6.730101,-7.347805,2.374046,-9.564885,-1.030534
-1.970428,-6.749255,-7.309498,9.358779,-10.32061,-8.748092
-1.932121,-6.962338,-7.462727,1.519084,-13.46565,-18.77099
-1.699883,-6.885724,-7.10599,12.0229,-19.46565,-15.9084
-1.031901,-7.017405,-7.103596,-9.824428,-21.24427,-11.54962
-1.776498,-6.938396,-6.945579,0.3053435,-23.71756,-24.86259
-1.18513,-7.029376,-6.924031,-4.603054,-21.79389,-27.92366
-1.21386,-7.079654,-7.103596,-0.9236641,-17.24427,-27.52672
-0.9672575,-6.993463,-7.113173,-4.740458,-14.35878,-21.23664
-1.273715,-7.101202,-6.890512,-4.48855,-13.74046,-14.79389
-0.8954314,-7.199365,-7.00304,-0.04580153,-7.221374,-15.92366
-0.5243302,-7.249643,-6.943185,0.6717557,-3.984733,-5.70229
-0.5386954,-7.170634,-6.914454,-0.4656488,5.496183,0.4732824
-0.6967127,-7.180211,-6.868965,-1.961832,13.9542,5.351145
-0.4333505,-7.180211,-6.981492,-1.51145,19.46565,8.633588
-0.4788404,-7.266402,-7.029376,4.679389,25.07634,16.23664
-0.4189853,-7.19697,-6.92882,4.732824,28.07634,20.57252
-0.2154782,-7.182605,-7.010222,-4.91603,37.80916,23.13741
-0.1699883,-7.225701,-7.261614,1.450382,40.70229,30.87023
-0.1268927,-7.07726,-7.173028,2.045802,50.29771,34.74809
-0.1795651,-6.95755,-6.885724,-8.068703,54.39695,34.20611
-0.06703765,-7.319075,-7.187394,-7.931298,49.46565,32.49618
0.3567361,-7.050924,-6.955156,-6.885496,48.74046,34.82443
0.01675941,-7.24246,-7.218518,-5.175572,42.16031,31.48855
0.2154782,-7.137115,-7.165846,0.4427481,32.30534,24.40458
0.3639187,-7.161057,-6.95755,-1.755725,24.14504,19.23664
0.2011129,-7.247249,-6.900089,-3.664122,16.96183,13.68702
0.3902549,-7.295133,-7.038953,3.305344,6.374046,5.328244
0.6009446,-6.852205,-7.015011,-4.89313,2.977099,-1.267176
0.5674258,-7.034164,-7.153875,-5.435114,-0.2671756,-1.007634
0.4381389,-7.079654,-7.015011,0.1526718,-6.358778,-2.824427
0.5267244,-7.005434,-7.079654,-0.9236641,-9.206107,-4.870229
0.2681506,-7.017405,-7.110779,-2.755725,-13.69466,-7.770992
0.3351882,-6.991069,-7.062895,-4.015267,-17.31298,-10.14504
0.3256114,-7.12275,-7.297527,5.305344,-18.19084,-13.17557
0.4501099,-6.916849,-7.094019,6.496183,-11.96947,-7.648855
0.2106898,-6.950367,-7.278373,-4.694656,-12.1145,-10.77099
0.3016694,-7.110779,-7.108385,-2.167939,-9.312977,-11.61832
0.3782839,-6.964733,-7.07726,-5.19084,-5.908397,-11.90076
0.5793968,-7.03177,-7.295133,-2.48855,-2.442748,-6.305344
0.5602432,-7.132327,-7.271191,1.816794,1.938931,0.6183206
0.4118027,-7.012617,-7.108385,3.480916,2.19084,2.946565
0.6967127,-6.86657,-7.084443,1.671756,2.022901,3.748092
0.4716577,-6.955156,-7.036559,-4.465649,2.664122,-0.2366412
0.4429273,-7.015011,-7.050924,-5.38168,0.1145038,-1.229008
0.4884171,-7.029376,-7.108385,-2.916031,-3.221374,-3.793893
0.3232172,-7.065289,-7.062895,-0.2977099,-9.671756,-5.656488
0.4501099,-6.880936,-7.180211,0.3587786,-12.23664,-4.778626
0.4333505,-6.864176,-7.280767,0.5648855,-11.94656,-6.671756
0.4046201,-6.746861,-7.261614,-2.068702,-11.38168,-8.305344
0.5147533,-6.696582,-7.345411,-4.526718,-8.664123,-5.48855
0.2705448,-6.713342,-7.438785,-2.908397,-5.641222,-3.145038
-0.05506664,-6.878541,-7.484274,-4.145038,-9.374045,2.152672
-0.3830723,-6.469133,-7.620744,-7.496183,-11.64122,-5.885496
-0.4046201,-6.603208,-7.570466,-6.435114,-14.40458,-8.870229
-0.4237737,-6.91206,-7.714118,-2.603053,-19.21374,-8.328244
-0.5793968,-6.466739,-7.563283,-1.541985,-13.74046,-4.633588
-0.6488287,-6.682217,-7.900866,3.40458,-5.854962,-0.961832
-1.089362,-6.409278,-7.292738,1.961832,-7.343512,0.9465649
-1.031901,-6.471527,-7.350199,-5.625954,-5.847328,-5.778626
-0.7374141,-6.804321,-7.781156,3.358779,-12.68702,-11.09924
-0.7445967,-6.481104,-7.388506,9.053435,-7.206107,-8.587787
-0.9193734,-6.76362,-7.553706,2.236641,-2.59542,-15.16031
-0.7781156,-6.79235,-7.376535,1.564886,-6.977099,-12.57252
-0.6895301,-6.445191,-7.290344,0.2442748,-4.954198,-14.22137
-0.2585738,-6.940791,-7.254431,-1.519084,-5.282443,-11.66412
0.01675941,-6.797139,-7.201759,4.763359,-3.290076,-11.43511
0.3184288,-7.029376,-7.302315,1.984733,1.358779,-4.938931
0.05027823,-6.909666,-7.187394,4.335878,3.931298,1.603053
0.1604115,-7.015011,-7.307104,-1.206107,6.496183,3.427481
-0.2777274,-6.943185,-7.101202,-0.3282443,3.198473,-0.5725191
-0.1364695,-7.026982,-7.194576,1.244275,-1.152672,-4.78626
-0.1963245,-7.034164,-7.101202,2.40458,-6.137404,-6.526718
-0.06943185,-7.055712,-7.161057,1.59542,-10.27481,-10.32061
-0.01436521,-7.280767,-7.170634,5.946565,-9.916031,-11.52672
0.2298434,-7.005434,-7.115568,1.671756,-8.885496,-12.06107
0.04309563,-7.07726,-6.816292,-2.78626,-11.19084,-8.633588
-0.01915361,-7.163452,-7.007828,-3.236641,-10.48092,-9.244275
-0.03591302,-7.017405,-6.998251,-1.679389,-11.51145,-13.17557
0.237026,-7.098808,-7.132327,-0.6793893,-6.251908,-10.30534
0.320823,-7.153875,-7.086837,-0.7022901,-2.083969,-4.053435
0.3926491,-7.192182,-7.000646,0.1755725,3.343511,-0.5648855
0.2992752,-7.110779,-7.170634,1.427481,6.839694,2.931298
0.1125275,-7.103596,-6.952762,-1.610687,9.236641,2.679389
0.02394202,-7.177817,-6.933608,0.0,6.221374,2.160305
0.1604115,-7.292738,-6.940791,1.145038,3.648855,1.236641
0.2753332,-7.189788,-7.017405,2.038168,2.160305,1.274809
0.248997,-7.199365,-6.849811,2.152672,1.656489,1.618321
0.2801216,-7.211336,-6.995857,2.152672,2.78626,1.732824
0.3471592,-7.240066,-6.754043,-0.8778625,2.931298,1.038168
0.4070143,-7.144298,-7.050924,-1.954198,2.89313,-0.2442748
0.3782839,-7.201759,-6.845023,-1.335878,2.603053,0.4427481
0.3782839,-7.271191,-6.959944,0.1145038,2.557252,-0.2519084
0.4237737,-7.204153,-6.976704,-0.5877862,1.221374,-0.1526718
0.4644751,-7.173028,-6.909666,-0.4580153,1.274809,1.061069
0.3758897,-7.235278,-6.900089,-0.1145038,0.4503817,0.05343511
0.4620809,-7.184999,-6.818686,-0.3206107,1.969466,2.679389
0.4381389,-7.331046,-6.981492,-0.06870229,0.8473283,1.007634
0.4429273,-7.278373,-6.833052,1.038168,0.6870229,0.1679389
0.3806781,-7.326257,-6.801927,0.07633588,0.6030535,-0.08396947
0.3375824,-7.311892,-6.856994,1.618321,-0.6183206,-1.335878
0.3184288,-7.357382,-6.655881,1.564886,-0.7328244,-1.51145
0.3112462,-7.338228,-6.782773,-0.129771,-2.015267,-0.8549618
0.3878607,-7.371747,-6.780379,0.4045802,-2.030534,-1.007634
0.4429273,-7.302315,-6.607996,-0.961832,-2.290076,-3.091603
0.4501099,-7.522582,-6.852205,-0.1984733,-2.458015,-2.70229
0.3663129,-7.247249,-6.732495,-2.19084,-0.870229,-1.748092
0.4453215,-7.28795,-6.835446,-1.244275,0.1603053,-0.9465649
0.4189853,-7.592013,-6.787562,-0.1755725,0.8396947,-0.5572519
0.1029507,-7.441179,-6.663064,5.839694,-3.229008,-3.259542
0.4668693,-7.386112,-6.526594,1.694656,-5.61832,-3.183206
0.4596867,-7.412448,-6.617573,0.09160305,-6.992366,-3.427481
0.6009446,-7.465121,-6.811504,-3.564885,-5.068702,-3.618321
0.3663129,-7.141904,-6.514623,-2.969466,-5.38168,-3.603053
0.4692635,-7.45315,-6.842628,-1.770992,-3.847328,-0.7022901
0.4261679,-7.383718,-6.675035,0.5496183,-3.80916,0.7251908
0.3256114,-7.331046,-6.727707,0.0,-1.282443,1.740458
0.2681506,-7.331046,-6.794744,-1.030534,-0.648855,1.244275
0.2011129,-7.395689,-6.744466,-2.549618,0.1221374,0.7709923
0.2178724,-7.398083,-6.797139,-0.9236641,0.870229,2.122137
0.1101333,-7.426814,-6.92882,1.022901,1.78626,1.564886
0.04548983,-7.275979,-6.744466,-0.007633588,1.832061,4.396946
-0.05027823,-7.321469,-6.746861,-0.9389313,2.793893,5.061069
0.01197101,-7.299921,-6.859388,-0.9083969,3.396947,5.725191
-0.1053449,-7.302315,-6.742072,-0.8549618,4.167939,5.793893
-0.08858546,-7.357382,-6.732495,-1.21374,4.91603,4.335878
-0.1101333,-7.462727,-6.861782,1.145038,3.969466,3.198473
-0.05027823,-7.33344,-6.694188,-0.4351145,3.465649,5.229008
-0.1077391,-7.371747,-6.878541,-1.946565,2.625954,3.29771
-0.1173159,-7.292738,-6.722919,-3.503817,2.412214,2.389313
-0.1604115,-7.433996,-6.840234,-2.992366,3.038168,-0.01526718
0.07900865,-7.249643,-6.754043,-0.3206107,5.007634,3.519084
-0.02394202,-7.223307,-6.799533,-1.0,6.709924,6.61832
0.03591302,-7.249643,-6.880936,-0.1832061,7.59542,8.030535
-0.002394202,-7.307104,-6.854599,-1.541985,8.725191,6.152672
-0.04309563,-7.249643,-6.88333,-0.4503817,8.679389,5.519084
0.01197101,-7.292738,-7.036559,-3.328244,9.885496,5.59542
0.04070143,-7.25922,-7.046135,-1.519084,8.908397,4.10687
0.1771709,-7.134721,-6.679823,-2.0,9.648855,2.854962
0.2322376,-7.218518,-6.974309,-1.969466,10.1145,4.541985
0.1460463,-7.216124,-6.873753,-2.519084,7.419847,3.725191
-0.02154782,-7.273585,-6.959944,0.2519084,2.206107,1.167939
-0.2992752,-7.309498,-6.830657,-0.1221374,-8.687023,-6.045802
-0.1005565,-7.218518,-6.931214,2.732824,-16.67939,-11.25954
0.1268927,-7.216124,-6.86657,-2.412214,-16.26718,-10.43511
0.2322376,-7.206547,-6.856994,-2.083969,-13.27481,-9.740458
0.2178724,-7.335834,-6.885724,-0.480916,-12.74809,-12.09924
0.05506664,-7.261614,-6.88333,3.068702,-13.59542,-14.18321
0.3567361,-7.271191,-6.959944,-0.9236641,-7.21374,-5.465649
0.2011129,-7.302315,-6.979098,-0.3282443,-2.21374,-0.4885496
0.1388637,-7.410054,-6.895301,1.007634,-0.07633588,-1.412214
0.3016694,-7.261614,-6.967127,2.694656,3.030534,2.015267
0.545878,-7.319075,-6.895301,0.6030535,11.12977,8.297709
0.5171475,-7.350199,-6.854599,-0.9236641,18.36641,13.96183
0.5363012,-7.189788,-6.974309,0.03816794,25.93893,19.20611
0.5386954,-7.31668,-6.976704,-0.09160305,31.0229,22.0458
0.3998317,-7.156269,-6.861782,-4.129771,35.0916,25.75573
0.2178724,-7.228095,-6.924031,-3.038168,33.0229,23.34351
0.1723825,-7.314286,-6.856994,-3.496183,26.27481,16.46565
0.2322376,-7.343017,-6.710948,-3.954198,16.77863,9.007633
0.2394202,-7.323863,-6.823475,-2.335878,8.068703,3.80916
0.2513912,-7.398083,-6.780379,0.2824428,-0.6412213,-2.145038
0.2418144,-7.331046,-6.785168,0.1145038,-9.259542,-7.48855
0.4237737,-7.319075,-6.856994,0.7709923,-15.8855,-12.69466
0.4309563,-7.261614,-6.80911,1.267176,-19.37405,-14.74809
0.6009446,-7.268796,-7.017405,1.206107,-19.24427,-14.0
0.5171475,-7.280767,-6.852205,1.862595,-17.54198,-14.01527
0.617704,-7.220912,-6.991069,1.709924,-16.81679,-12.31298
0.2801216,-7.565677,-6.715736,3.748092,-16.08397,-10.16031
0.4070143,-7.366959,-6.854599,2.977099,-15.8855,-8.954199
0.3734955,-7.331046,-6.823475,2.320611,-12.07634,-5.282443
0.2801216,-7.264008,-6.799533,-0.4427481,-9.007633,-3.175573
0.3591303,-7.347805,-6.701371,-4.870229,-5.59542,-0.8931297
-0.1053449,-7.40766,-6.813898,-4.251908,-6.274809,-5.526718
-0.1747767,-7.472303,-6.909666,-1.137405,-9.702291,-9.725191
-0.1244985,-7.311892,-6.698977,0.7557252,-12.14504,-12.83969
0.1771709,-7.357382,-6.876147,2.229008,-11.58779,-10.64886
0.1723825,-7.273585,-6.825869,1.152672,-7.129771,-6.519084
0.3519476,-7.235278,-6.825869,0.4198473,-1.938931,-1.503817
0.4405331,-7.381324,-6.890512,1.832061,2.465649,2.267176
0.2920926,-7.230489,-6.859388,2.290076,8.80916,7.442748
0.272939,-7.290344,-6.924031,-1.725191,13.68702,10.19847
0.1699883,-7.486669,-6.833052,-1.251908,17.39695,10.16031
0.2202666,-7.273585,-6.80911,-1.633588,19.8855,11.70229
0.2442086,-7.405266,-6.732495,-2.717557,20.48092,12.43511
0.3998317,-7.285556,-6.845023,-2.992366,21.29008,13.22137
0.3280056,-7.410054,-6.761226,-3.526718,21.19084,12.76336
0.3806781,-7.297527,-6.871359,-3.396947,19.37405,10.56489
0.3615245,-7.400477,-6.856994,-3.10687,17.76336,7.961832
0.4118027,-7.450756,-6.706159,-1.068702,13.84733,6.305344
0.5889736,-7.309498,-6.852205,-2.343511,10.44275,5.740458
0.5865794,-7.417237,-6.890512,-0.01526718,6.641222,2.450382
0.8762778,-7.182605,-6.739678,-0.5954198,4.206107,0.7557252
0.9433154,-7.244854,-6.806715,-1.832061,3.671756,0.4656488
0.7852982,-7.302315,-6.880936,-2.557252,2.21374,0.1068702
0.7206547,-7.273585,-6.777985,-2.465649,-1.625954,-1.946565
0.7086837,-7.175423,-6.895301,-1.290076,-4.290076,-0.04580153
0.7062895,-7.25922,-6.876147,-2.51145,-6.335878,0.1679389
0.6248866,-7.153875,-6.787562,-1.59542,-8.145039,-1.114504
0.581791,-7.228095,-6.976704,-3.137405,-7.282443,0.1221374
0.4740519,-7.125144,-6.878541,-3.320611,-7.969466,-0.07633588
0.7422025,-7.256825,-7.153875,-1.725191,-6.21374,-0.4961832
0.4692635,-7.173028,-6.947973,0.9694656,-3.152672,0.3587786
0.5291186,-7.089231,-7.041347,1.587786,1.358779,1.694656
0.3040636,-7.096414,-7.017405,-0.8244275,2.351145,3.679389
0.2082956,-7.115568,-6.983886,-0.7175572,2.442748,5.061069
0.09097966,-7.137115,-7.101202,-3.251908,2.526718,3.656489
-0.1412579,-6.904878,-7.204153,-5.358778,0.8931297,1.290076
0.1125275,-7.208941,-7.271191,-1.267176,1.610687,-5.053435
-0.2705448,-7.149086,-7.053318,-1.916031,-1.442748,2.870229
-0.3160346,-6.818686,-7.252037,1.641221,-4.053435,-4.61832
-0.009576806,-6.909666,-7.223307,-1.664122,0.129771,-0.8549618
-0.05746084,-7.115568,-7.108385,3.51145,3.564885,-3.992366
0.2681506,-7.230489,-7.07726,4.671756,3.496183,1.748092
0.4094085,-7.10599,-7.065289,1.137405,5.221374,5.152672
0.3495534,-7.151481,-6.876147,-4.358778,6.267176,0.8473283
0.4333505,-7.326257,-6.921637,0.3358779,4.847328,-0.09160305
0.6009446,-7.199365,-6.890512,-0.8549618,5.549618,0.9770992
0.4118027,-7.146692,-6.907272,-1.717557,3.839695,0.129771
0.5506664,-7.194576,-6.909666,-1.198473,2.473282,0.5267176
0.6488287,-7.240066,-6.971915,-0.2137404,1.931298,1.0
0.5865794,-7.170634,-6.785168,1.221374,0.7251908,3.793893
0.56982,-7.206547,-7.067683,0.9770992,0.1984733,1.847328
0.5075707,-7.165846,-6.861782,0.2671756,-1.068702,0.778626
0.5626374,-7.225701,-7.098808,-0.9541985,-1.755725,-1.19084
0.3902549,-7.189788,-6.962338,-1.305344,-3.022901,-3.480916
0.4979939,-7.129933,-6.909666,-0.8396947,-2.251908,-3.954198
0.5530606,-7.175423,-6.895301,1.396947,-2.916031,-3.045802
0.6655881,-7.187394,-7.000646,0.6183206,-0.8091603,-0.2977099
0.5267244,-7.240066,-6.830657,-0.6030535,-0.04580153,1.030534
0.6200982,-7.237672,-7.015011,-0.09923664,2.709924,0.8473283
0.4955997,-7.184999,-6.888118,-1.748092,3.78626,0.5954198
0.5913678,-7.230489,-6.909666,-2.351145,4.648855,1.961832
0.4189853,-7.273585,-6.933608,-1.740458,2.80916,0.5801527
0.4333505,-7.199365,-6.825869,-0.740458,1.0,0.961832
0.4405331,-7.175423,-6.86657,-0.7709923,-0.5496183,-0.09923664
0.56982,-7.192182,-6.955156,-0.3969466,-1.10687,-0.6412213
0.5482722,-7.309498,-6.979098,-0.3282443,0.3664122,0.2442748
0.4716577,-7.223307,-6.924031,-1.145038,-0.1679389,1.0
0.6224924,-7.153875,-6.914454,-0.4427481,1.603053,2.610687
0.6488287,-7.091625,-6.868965,-0.7251908,4.854962,4.091603
0.5674258,-7.177817,-6.897695,-3.541985,6.244275,6.40458
0.3854665,-7.165846,-6.959944,-3.877863,5.656488,6.603054
0.4979939,-7.117962,-7.000646,-1.572519,4.29771,7.068702
0.3399766,-7.144298,-7.146692,1.946565,3.870229,3.778626
0.4094085,-7.082048,-7.012617,2.564885,2.412214,0.9160305
0.2274492,-7.062895,-7.00304,-0.8167939,1.557252,0.2061069
0.3040636,-7.017405,-7.086837,-5.854962,1.633588,-1.572519
0.4501099,-7.050924,-7.256825,-7.091603,5.015267,-0.8854962
0.4501099,-6.864176,-7.050924,-8.755725,8.885496,-1.664122
0.5889736,-7.101202,-7.345411,-19.75573,7.549618,1.40458
0.1268927,-7.070077,-7.450756,-1.740458,-2.618321,0.3358779
0.3926491,-6.816292,-7.235278,2.21374,-11.38168,-4.10687
0.007182605,-6.469133,-7.182605,0.9236641,-17.96183,-11.87023
0.05746084,-6.691794,-7.529764,5.305344,-28.64122,-20.9771
0.225055,-6.675035,-7.762002,5.061069,-31.87023,-23.89313
0.6703765,-6.634333,-7.271191,9.984733,-21.24427,-23.38931
0.4788404,-6.952762,-7.350199,-1.122137,-15.52672,-3.389313
0.05267244,-6.938396,-7.354988,5.076336,-12.52672,-4.48855
0.4453215,-6.83784,-7.426814,2.984733,-4.847328,3.274809
0.2226608,-6.83784,-7.31668,4.725191,4.290076,7.48855
0.2274492,-6.892907,-7.271191,-1.396947,12.48855,12.20611
0.1795651,-6.91206,-7.309498,-1.374046,18.45802,13.77099
0.2801216,-6.955156,-7.357382,0.04580153,25.87786,20.24427
0.4453215,-6.679823,-7.323863,-3.48855,34.87023,23.94657
-0.1460463,-6.892907,-7.211336,-8.038168,34.90076,24.83969
0.1651999,-7.00304,-7.321469,-6.664122,31.37405,25.25954
0.2992752,-6.821081,-7.417237,-1.335878,34.12977,23.30534
0.5267244,-6.722919,-7.424419,-5.38168,37.19084,22.65649
0.3232172,-6.845023,-7.369353,-6.358778,32.0916,23.00763
0.4046201,-6.797139,-7.173028,-7.862596,27.80916,21.35114
0.3950433,-6.665458,-7.345411,-8.656488,18.94657,14.66412
0.7278373,-6.694188,-7.61835,-4.48855,15.96183,7.969466
0.6703765,-6.631939,-7.345411,-6.030534,9.0,1.480916
0.926556,-6.636727,-7.486669,-3.038168,3.389313,0.2061069
0.9864111,-6.687006,-7.534553,0.6641222,-1.183206,-1.244275
0.8714894,-6.572083,-7.460332,0.2748091,-2.931298,-3.961832
0.8523358,-6.600814,-7.501034,1.465649,-7.099236,-11.58015
1.182736,-6.514623,-7.400477,-0.7022901,-8.526717,-12.68702
1.108515,-6.591237,-7.429208,3.687023,-10.39695,-4.755725
0.4453215,-6.698977,-7.295133,8.633588,-20.48855,-14.61069
0.7852982,-6.782773,-7.424419,6.78626,-27.80153,-22.30534
0.9409212,-6.710948,-7.410054,5.137404,-29.07634,-25.9542
1.108515,-6.742072,-7.347805,6.633588,-25.56489,-23.74046
1.115698,-6.756437,-7.364564,3.992366,-17.47328,-16.37405
0.9864111,-6.710948,-7.347805,3.312977,-11.96183,-9.977099
0.9840169,-6.811504,-7.225701,-1.015267,-7.580153,-7.442748
0.8882488,-6.813898,-7.28795,-1.587786,-5.10687,-4.870229
0.914585,-6.519411,-7.462727,-4.21374,0.870229,-7.854962
0.9097966,-6.981492,-7.338228,-17.89313,-4.80916,-4.358778
0.6344634,-6.607996,-7.491457,-5.709924,-9.312977,-4.847328
0.9481038,-6.660669,-7.771579,7.267176,-14.41221,-6.51145
0.8140285,-6.253655,-7.661446,6.870229,-12.22137,-2.618321
0.6607997,-6.301539,-7.61835,-0.6793893,-9.022901,-6.633588
0.5410896,-6.476315,-7.752425,-6.610687,-5.061069,-7.274809
0.2657564,-6.325481,-7.702147,-10.61832,-7.038168,-12.17557
0.2705448,-6.627151,-7.570466,-12.25191,-11.33588,-9.488549
0.1556231,-6.397307,-7.991845,-7.114504,-11.38931,-7.0
0.28491,-6.445191,-7.565677,8.549619,-10.24428,-11.16794
0.2035071,-6.430826,-8.025364,6.068702,-5.732824,-5.145038
0.3040636,-6.136339,-7.965509,8.38168,-3.748092,-4.198473
0.2394202,-6.133945,-7.685388,2.068702,0.2137404,-4.29771
-0.1532289,-6.593631,-7.884106,5.717557,-1.244275,-5.526718
-0.04788403,-6.639122,-8.049306,5.221374,-6.328244,-6.129771
0.3734955,-6.411672,-7.594408,11.25191,-7.755725,-5.78626
0.1197101,-6.246472,-7.275979,-5.152672,-4.389313,-6.664122
0.4716577,-6.797139,-7.524976,3.587786,-8.625955,-10.69466
0.5267244,-6.701371,-7.445967,-0.8244275,-5.061069,-7.648855
0.7374141,-6.830657,-7.383718,5.992366,-0.7099237,-6.977099
0.8834604,-6.682217,-7.189788,2.557252,2.519084,0.4503817
0.6607997,-6.876147,-7.364564,2.206107,4.816794,2.351145
0.6607997,-6.845023,-7.216124,0.5114504,5.030534,1.244275
0.7398083,-6.895301,-7.323863,4.099236,1.473282,-1.198473
0.8212111,-6.80911,-7.201759,3.526718,-0.8931297,-0.778626
0.7445967,-6.739678,-7.129933,-0.5648855,-3.427481,-2.48855
0.8451532,-6.885724,-7.261614,-1.793893,-3.206107,-3.473282
0.6943185,-6.933608,-7.192182,0.4045802,-3.587786,-4.198473
0.6224924,-6.828263,-7.125144,-1.282443,-4.015267,-1.534351
0.629675,-6.667852,-7.295133,-6.801527,0.03816794,-3.870229
0.5793968,-7.005434,-7.237672,-3.793893,-1.862595,-5.503817
0.5674258,-6.835446,-7.292738,-1.267176,-2.251908,-4.335878
0.5147533,-6.871359,-7.309498,-1.061069,-3.801527,-4.671756
0.5770026,-6.849811,-7.307104,-0.519084,-4.954198,-4.061069
0.4525041,-6.950367,-7.398083,0.4122138,-5.335878,-5.770992
0.5315128,-6.768408,-7.235278,1.70229,-6.534351,-5.312977
0.6512229,-6.727707,-7.292738,2.618321,-5.358778,-3.274809
0.7589619,-6.701371,-7.220912,1.442748,-3.320611,-2.885496
0.7900866,-6.804321,-7.311892,-0.05343511,0.610687,-0.2977099
0.7972692,-6.694188,-7.204153,-2.183206,4.580153,1.51145
0.890643,-6.92882,-7.338228,-0.7557252,7.748092,5.282443
0.7924808,-6.852205,-7.247249,-1.053435,10.22901,8.274809
0.8020576,-6.845023,-7.177817,-0.6259542,11.69466,11.19847
0.8044518,-6.88333,-7.24246,0.3282443,12.45802,11.45802
0.6440403,-7.146692,-7.388506,-0.06870229,10.67939,6.030534
0.6727707,-6.785168,-6.888118,-7.458015,13.48855,8.259542
0.7517793,-6.871359,-7.441179,-1.419847,11.9771,8.625955
0.6440403,-6.967127,-7.019799,3.038168,4.633588,9.748092
0.9504981,-6.895301,-7.182605,2.129771,9.503817,11.12977
1.007959,-6.92882,-6.919243,-0.778626,13.32061,21.49618
0.6248866,-6.938396,-7.125144,-2.603053,13.77099,14.94656
0.5434838,-6.888118,-7.304709,5.175572,16.80916,11.90076
1.764527,-6.531382,-6.828263,-14.22901,32.83969,31.24427
-0.007182605,-7.299921,-7.103596,-4.465649,23.37405,32.22137
-0.6703765,-7.292738,-7.278373,-4.931298,4.961832,-3.152672
0.6536171,-6.976704,-7.084443,4.328244,-6.312977,-5.10687
0.6512229,-6.73489,-7.302315,5.038168,-0.7862596,2.427481
0.6320692,-6.76362,-7.31668,-6.610687,2.526718,12.64886
-0.1029507,-6.902483,-7.414843,2.030534,-4.48855,-7.419847
0.3232172,-6.821081,-7.326257,-4.870229,-7.0,-7.564886
0.641646,-6.936002,-7.187394,-10.10687,-0.9770992,-1.770992
0.9552865,-6.730101,-7.546524,-4.778626,8.068703,10.93893
0.4860229,-6.576872,-7.429208,0.9465649,8.702291,1.206107
1.039083,-6.756437,-7.659051,-10.64122,13.82443,14.00763
0.7302315,-6.272809,-7.40766,-9.625955,25.35878,20.84733
0.01197101,-6.933608,-8.027759,-0.9236641,18.41985,10.76336
0.5363012,-6.572083,-7.852982,-1.954198,11.08397,17.35878
0.866701,-5.710171,-7.510611,-8.297709,25.54962,25.01527
0.320823,-6.648698,-7.8865,-10.20611,20.73282,20.09924
0.1628057,-6.634333,-7.805098,-1.916031,9.702291,13.52672
0.1987187,-6.586449,-7.431602,3.21374,3.641221,4.61832
0.02154782,-6.756437,-7.733272,10.32061,1.40458,1.633588
-0.07182605,-6.59842,-7.548918,14.40458,-6.175572,2.541985
0.3591303,-6.351817,-7.984663,14.73282,-12.12214,-31.61832
1.39582,-6.354211,-7.03177,5.320611,-3.442748,-8.847328
0.926556,-7.043741,-6.907272,-8.541985,1.473282,-7.847328
1.144428,-7.110779,-6.888118,0.1755725,-2.458015,-3.778626
1.225831,-6.998251,-7.065289,0.7480916,-0.02290076,0.3435115
0.9959879,-6.981492,-7.000646,4.267176,-1.10687,1.068702
1.125275,-6.92882,-7.017405,2.526718,-2.946565,0.3664122
1.101333,-6.830657,-6.95755,-1.305344,-2.007634,-1.389313
0.938527,-6.521805,-6.947973,-7.664122,-1.465649,-2.946565
0.8331822,-7.204153,-7.326257,-10.61069,-5.152672,-3.083969
1.18513,-6.502652,-7.086837,-4.167939,3.885496,0.05343511
0.8044518,-6.940791,-7.431602,-1.549618,3.961832,7.969466
0.9457096,-6.636727,-7.31668,-3.129771,2.458015,4.763359
0.842759,-7.010222,-7.244854,-0.04580153,3.717557,3.022901
1.156399,-6.789956,-7.187394,-1.992366,6.61832,5.022901
1.280898,-6.811504,-7.307104,2.603053,11.06107,10.84733
1.331176,-6.773197,-7.244854,-2.442748,19.87023,14.70229
1.462857,-7.098808,-7.603985,-1.251908,28.00763,7.778626
1.106121,-6.991069,-6.787562,1.641221,24.72519,0.1068702
1.802834,-6.962338,-6.854599,-1.412214,20.65649,6.450382
1.237802,-7.043741,-6.430826,5.19084,4.29771,3.778626
1.786075,-6.91206,-6.394913,2.083969,-7.389313,7.419847
1.369483,-7.335834,-6.95755,-2.923664,-6.694656,4.274809
1.280898,-7.271191,-6.993463,5.61832,-12.68702,-9.526717
0.9457096,-6.931214,-6.926425,2.603053,-15.54198,-6.603054
0.9409212,-7.024588,-7.132327,3.015267,-20.10687,-14.05344
1.216254,-6.682217,-6.971915,0.3969466,-17.40458,-10.00763
0.8116343,-7.12275,-7.00304,3.496183,-17.31298,-11.0229
0.9840169,-6.86657,-6.981492,5.412214,-17.26718,-10.70992
0.9672575,-7.175423,-7.108385,-1.038168,-14.61069,-8.312977
0.5674258,-7.07726,-6.880936,0.03816794,-16.29008,-9.435115
0.8954314,-7.026982,-7.050924,-5.129771,-12.9771,-7.648855
0.5410896,-6.864176,-6.974309,-5.48855,-7.900764,-5.129771
0.9768343,-7.000646,-7.16824,-6.244275,-0.519084,-1.21374
0.8283938,-7.103596,-7.275979,-0.06870229,4.198473,6.770992
0.8619126,-6.888118,-7.218518,0.9312977,12.43511,9.664123
0.890643,-7.03177,-7.321469,-3.503817,17.05343,17.00763
0.6272808,-6.859388,-7.228095,-6.419847,21.31298,19.79389
0.7110779,-6.835446,-7.304709,-0.3358779,25.22901,23.48855
0.4213795,-6.854599,-7.175423,-1.89313,25.23664,24.33588
0.5650316,-6.873753,-7.225701,-2.847328,22.57252,19.81679
0.5315128,-6.835446,-7.254431,-11.35114,22.52672,15.74809
0.7685388,-6.895301,-7.474698,-5.763359,23.9771,17.28244
0.8954314,-6.880936,-7.592013,-3.312977,26.83969,19.03817
0.7445967,-6.675035,-7.369353,-7.496183,26.41985,19.9313
0.7350199,-6.756437,-7.395689,-8.694656,25.99237,15.51145
1.098939,-6.579266,-7.331046,-7.0,22.70229,13.9542
0.902614,-6.730101,-7.149086,-9.656488,21.50382,17.01527
1.060631,-6.756437,-7.271191,-6.320611,17.75573,12.54962
1.067814,-6.840234,-7.230489,-5.358778,10.56489,9.458015
1.221043,-6.701371,-7.223307,-1.450382,6.824428,3.977099
2.15957,-6.426037,-7.295133,2.198473,11.80916,8.938931
1.553837,-6.588843,-6.816292,-9.106871,20.91603,17.10687
1.132457,-6.983886,-7.484274,-3.083969,15.0229,12.67939
0.8690952,-6.825869,-7.141904,-5.114504,6.305344,3.160305
1.307234,-6.847417,-7.383718,1.351145,-3.854962,-4.29771
1.122881,-6.660669,-7.244854,-0.03816794,-10.20611,-9.274809
1.18513,-6.766014,-7.359776,6.282443,-16.54962,-13.32061
1.007959,-6.766014,-7.218518,4.984733,-24.91603,-20.03817
1.046266,-6.667852,-7.304709,12.73282,-32.00763,-24.16031
1.261744,-6.584054,-7.225701,7.503817,-33.0458,-26.59542
1.225831,-6.785168,-7.422025,9.488549,-33.73283,-25.9542
1.122881,-6.631939,-7.309498,4.763359,-31.24427,-26.00763
1.182736,-6.845023,-7.395689,5.503817,-30.65649,-25.20611
1.034295,-6.777985,-7.374141,3.21374,-28.40458,-23.50382
0.8092402,-6.938396,-7.345411,6.694656,-28.00763,-21.49618
0.7230489,-6.888118,-7.235278,6.160306,-29.55725,-19.93893
0.617704,-6.864176,-7.304709,9.961832,-30.47328,-17.31298
0.3998317,-6.801927,-7.371747,10.87023,-28.29008,-23.64122
0.4285621,-6.967127,-7.082048,2.70229,-28.38931,-27.54962
0.5027823,-6.892907,-7.036559,-6.931298,-26.08397,-26.0458
0.4692635,-6.991069,-7.292738,-6.59542,-24.63359,-24.29008
0.4764462,-6.880936,-7.235278,-6.160306,-23.45038,-24.27481
0.5123591,-7.134721,-7.477092,4.305344,-22.16794,-18.93893
0.4955997,-6.73489,-7.218518,1.48855,-19.43511,-18.03817
0.3303998,-6.880936,-7.412448,-5.21374,-15.74809,-17.36641
0.3615245,-6.722919,-7.321469,-2.89313,-12.8855,-13.34351
0.2777274,-6.830657,-7.656657,-0.351145,-12.22137,-11.59542
0.2178724,-6.653487,-7.340622,-1.206107,-11.45802,-8.022901
0.6105214,-6.818686,-7.568071,2.129771,-7.778626,-2.167939
0.8858546,-7.086837,-7.438785,21.47328,-4.541985,11.8626
0.3567361,-7.024588,-6.981492,19.51145,3.244275,23.83969
-0.05985504,-7.005434,-6.816292,7.099236,31.94657,16.16031
0.4955997,-7.156269,-7.177817,-17.14504,48.77863,20.52672
0.6584055,-7.457938,-7.256825,1.984733,51.0229,41.06107
-0.2418144,-6.830657,-7.024588,13.96183,48.53435,31.28244
0.4692635,-7.314286,-6.634333,-3.198473,46.60305,40.16794
0.5315128,-6.904878,-6.766014,0.2290076,43.96947,27.65649
0.7445967,-7.520187,-6.38773,-1.854962,43.78626,36.37405
0.2106898,-7.304709,-6.540959,-2.961832,38.21374,23.68702
0.7374141,-7.510611,-6.897695,-3.366412,30.46565,21.54962
0.8714894,-7.723695,-6.955156,16.49618,23.47328,19.77099
0.9050082,-7.359776,-6.066907,26.9084,24.74046,18.64122
-0.7278373,-8.576031,-6.227319,3.076336,0.9236641,-1.740458
0.4094085,-7.867347,-6.064513,-16.77099,4.114504,-8.748092
-0.1340753,-8.298303,-6.270414,3.442748,-20.69466,-16.05343
0.9696517,-7.773973,-6.114791,5.320611,-24.61069,-14.0916
1.335965,-7.441179,-5.736507,-2.419847,-17.48092,-7.778626
1.156399,-7.893683,-6.545747,-5.137404,-9.114504,-3.381679
1.369483,-7.685388,-6.133945,0.9083969,1.557252,3.099237
0.8140285,-7.915231,-6.155493,2.274809,6.19084,4.70229
0.7517793,-7.649475,-6.172252,0.1068702,3.625954,7.137404
0.2298434,-7.999028,-6.208165,-2.015267,-4.549618,-1.198473
0.6033388,-8.054094,-6.098032,3.694656,-12.84733,-8.954199
0.6464345,-7.752425,-5.803545,4.076336,-13.32061,-10.80153
0.3639187,-8.082825,-6.145916,0.09923664,-15.36641,-8.709924
0.2106898,-7.922413,-6.035782,6.412214,-22.52672,-12.39695
0.4165911,-7.896077,-6.129156,-1.427481,-23.28244,-13.0687
0.6943185,-7.862558,-6.189012,3.366412,-19.09924,-9.862596
0.5243302,-7.965509,-6.23929,-1.007634,-12.9084,-6.656488
0.9648633,-7.594408,-6.181829,-2.954198,3.007634,-2.89313
1.455675,-7.649475,-6.138733,-16.12977,33.40458,17.85496
1.177947,-7.896077,-6.945579,1.022901,47.03817,32.16794
0.08619126,-7.776367,-6.406884,-4.564886,35.62595,26.23664
-0.4572925,-7.776367,-6.117185,0.06870229,17.0229,13.1145
0.4046201,-7.635109,-6.167464,-2.007634,6.664122,-0.7022901
0.4764462,-7.295133,-5.98311,5.480916,5.282443,1.847328
0.2298434,-7.946355,-6.490681,1.679389,-12.29771,-7.80916
0.7350199,-7.93199,-5.695806,-5.801527,-5.763359,-4.59542
0.9552865,-7.594408,-6.205771,-9.236641,4.923664,1.717557
0.3136404,-7.800309,-6.270414,-0.8778625,5.885496,4.137404
-0.05746084,-7.821857,-6.490681,5.320611,-14.26718,-6.236641
2.791639,-7.462727,-6.797139,6.572519,-31.56489,-18.41985
1.180341,-7.546524,-6.457162,3.122137,-21.85496,-15.33588
0.7517793,-7.967903,-6.55293,3.519084,-9.244275,-6.152672
0.7038953,-7.735666,-6.210559,-2.732824,-1.778626,-1.022901
0.7398083,-7.814674,-6.406884,-1.030534,6.175572,4.580153
0.7230489,-7.81228,-6.332664,1.236641,12.12977,8.076336
0.581791,-7.627927,-6.23929,-2.137405,14.76336,7.343512
0.7493851,-7.788338,-6.256049,-0.3358779,17.60305,11.59542
0.7182605,-7.654263,-6.110003,-10.52672,22.14504,11.39695
1.000776,-7.841011,-6.399701,-4.061069,24.67175,16.9542
0.4501099,-7.781156,-6.26802,0.3129771,23.39695,14.80916
0.07900865,-7.831434,-5.925649,-0.2824428,7.312977,3.465649
-0.5099649,-7.852982,-6.181829,3.244275,-16.48855,-13.14504
0.8092402,-7.673417,-5.853823,-7.717557,-21.1145,-16.05343
1.757344,-7.943961,-6.356606,2.687023,-8.198473,-4.78626
1.592144,-7.673417,-6.423643,-0.1755725,10.41221,5.068702
0.8523358,-7.680599,-6.430826,3.641221,12.61069,5.870229
-0.1364695,-7.891289,-6.083666,3.091603,-3.816794,-2.709924
1.01993,-7.635109,-6.220136,-1.969466,-7.145038,-6.534351
1.604115,-7.884106,-5.968745,-3.610687,5.587786,2.793893
0.7110779,-7.958326,-5.987898,0.08396947,11.96183,5.59542
0.3519476,-7.817069,-6.208165,4.473282,1.977099,1.458015
0.2873042,-7.771579,-6.078878,-4.343512,-6.419847,-3.229008
1.290475,-7.49864,-6.07409,-14.85496,-6.236641,1.969466
0.4046201,-8.078036,-6.330269,-10.07634,-26.58779,19.18321
0.1364695,-8.23366,-7.180211,25.67939,-6.038168,-7.335878
0.2394202,-7.52737,-5.851429,-3.343511,-6.259542,-6.931298
0.5123591,-7.802703,-6.579266,-6.08397,-32.48092,6.839694
-0.2466028,-7.261614,-5.674258,-3.793893,-19.05343,6.900764
-0.7422025,-7.896077,-6.845023,-4.557252,-4.671756,-24.54962
-0.4860229,-7.852982,-6.634333,16.72519,-19.38168,-3.007634
-0.4668693,-7.508216,-6.291962,-8.366412,-13.58779,-9.564885
-0.3016694,-7.76679,-6.402095,0.2900764,-13.87786,-21.00763
-0.3399766,-7.800309,-6.337452,7.763359,-20.37405,-24.08397
0.1699883,-7.76679,-6.236896,-8.076336,-12.58779,-12.59542
-0.07182605,-7.797915,-6.279991,-3.442748,-4.854962,-6.923664
-0.03351882,-7.78355,-6.457162,-6.038168,-2.458015,-6.557252
-0.09097966,-7.627927,-6.43322,4.969466,-6.862596,-2.343511
-0.03830723,-7.668628,-6.55293,1.160305,-4.778626,-4.671756
-0.1340753,-7.726089,-6.540959,-0.07633588,-2.885496,-3.267176
-0.02394202,-7.70933,-6.485892,1.541985,-0.6793893,-1.267176
0.1053449,-7.757214,-6.593631,1.916031,4.59542,0.8549618
0.1101333,-7.757214,-6.121974,1.244275,10.41221,4.717557
0.248997,-7.465121,-6.423643,-13.12977,30.83969,-9.748092
0.926556,-7.515399,-6.524199,-12.47328,32.0687,24.60305
0.5099649,-7.699753,-6.687006,-7.374046,37.0916,18.27481
0.9050082,-7.31668,-6.497863,-8.290076,42.03053,28.40458
0.6751649,-7.240066,-6.806715,-10.24428,40.43512,26.54198
0.4525041,-7.400477,-6.730101,-9.061069,34.77863,22.9084
0.3064578,-7.345411,-6.617573,-15.19084,24.64886,13.53435
0.782904,-7.192182,-6.835446,-2.038168,10.50382,12.72519
0.5003881,-7.295133,-6.799533,3.259542,2.740458,4.053435
0.6584055,-7.235278,-6.799533,1.618321,-3.885496,-3.068702
0.6679823,-7.24246,-6.651093,-3.877863,-9.137404,-7.152672
0.7757214,-7.331046,-6.861782,0.7022901,-8.847328,-9.984733
0.6727707,-7.350199,-6.679823,-2.175573,-9.984733,-9.320611
1.031901,-7.431602,-7.010222,3.274809,-9.389313,-4.160306
0.85473,-7.321469,-6.777985,2.473282,-3.946565,-0.2748091
0.914585,-7.299921,-6.804321,1.282443,0.1908397,2.931298
0.6129156,-7.256825,-6.801927,0.8167939,3.389313,1.664122
0.5961562,-7.381324,-6.660669,-7.343512,2.259542,-4.671756
0.782904,-7.264008,-7.055712,3.343511,0.2213741,-0.961832
0.6512229,-7.266402,-6.646304,-4.679389,1.732824,-2.122137
0.7900866,-7.340622,-6.974309,0.7557252,-0.9236641,-0.5877862
0.7278373,-7.094019,-6.830657,-1.603053,-0.9847328,0.1068702
0.7900866,-7.369353,-6.95755,-0.4274809,-1.198473,0.02290076
0.7398083,-7.261614,-6.789956,-1.793893,-1.198473,0.2977099
0.617704,-7.24246,-6.816292,-0.02290076,-3.648855,-1.427481
0.6488287,-7.249643,-6.847417,1.465649,-4.343512,-2.633588
0.7733272,-7.244854,-6.773197,3.396947,-4.496183,-2.763359
0.5722142,-7.31668,-6.6894,0.6564885,-6.091603,-4.419847
0.4740519,-7.40766,-6.842628,-1.70229,-9.709924,-6.946565
0.581791,-7.374141,-6.823475,1.198473,-11.9771,-4.183206
0.7182605,-7.45315,-7.007828,8.022901,-10.27481,-2.312977
0.7254431,-7.113173,-6.847417,7.748092,-3.007634,-3.061069
0.6871359,-7.335834,-6.562507,-5.122138,1.885496,-4.725191
0.6200982,-7.383718,-6.73489,-5.954198,2.526718,-4.740458
0.6105214,-7.503428,-6.931214,1.549618,1.458015,0.8549618
0.07182605,-7.273585,-6.512228,1.923664,-8.099236,-2.618321
0.3639187,-7.273585,-6.663064,3.381679,-12.60305,-11.07634
0.8379706,-7.326257,-6.787562,-1.40458,-5.656488,-2.244275
0.5434838,-7.503428,-6.701371,-1.351145,-3.748092,-0.961832
0.5410896,-7.685388,-6.768408,3.40458,-6.282443,-1.908397
0.3974375,-7.491457,-6.744466,8.671756,-4.045802,0.5114504
0.4309563,-7.45315,-6.586449,-0.6870229,-2.954198,-3.236641
0.3902549,-7.40766,-6.392519,-4.748092,-3.259542,-5.51145
0.4381389,-7.644686,-6.627151,-4.587786,-1.625954,-3.167939
0.3064578,-7.632715,-6.584054,0.5801527,-2.21374,-1.862595
0.3303998,-7.517793,-6.526594,2.801527,-4.282443,-2.007634
0.533907,-7.429208,-6.579266,1.931298,-2.80916,-1.206107
0.533907,-7.450756,-6.495469,-2.335878,0.8778625,0.7251908
0.3280056,-7.584831,-6.631939,-1.244275,0.4732824,5.122138
