ax,ay,az,gx,gy,gz
0.1580173,-8.647857,-4.99191,-1.374046,2.969466,1.358779
0.1819593,-8.523358,-5.025429,-0.5877862,-2.694656,0.3282443
0.1077391,-8.571242,-5.104438,1.091603,-1.618321,-1.145038
0.5075707,-8.643068,-5.106832,1.908397,0.6793893,4.778626
-0.1005565,-8.559271,-5.042189,-0.5496183,-5.91603,-2.022901
0.03830723,-8.657434,-5.030218,2.923664,-6.633588,-2.557252
0.5722142,-8.532935,-4.884171,-0.389313,-1.877863,0.0
0.1077391,-8.729259,-4.874595,-2.229008,6.030534,1.358779
0.1556231,-8.640674,-4.865018,-2.381679,7.145038,0.5496183
0.03351882,-8.736442,-4.953603,-3.038168,3.320611,1.70229
0.03112462,-8.688558,-5.032612,-1.740458,2.679389,2.251908
0.03112462,-8.674192,-5.171476,-1.083969,0.09923664,1.854962
0.4644751,-8.683769,-4.790798,-0.5954198,3.442748,-1.603053
0.5386954,-8.374918,-4.967968,-8.503817,13.45802,4.374046
-0.1364695,-8.63828,-5.41329,-7.557252,5.030534,-2.503817
0.02394202,-8.678981,-5.521029,-10.18321,5.80916,4.526718
-0.1915361,-8.394072,-5.736507,-8.992367,2.725191,4.854962
0.2011129,-8.252813,-5.422867,-2.946565,11.47328,4.160306
0.2825158,-8.487445,-5.655105,-5.435114,20.14504,4.633588
-0.03830723,-8.585608,-5.62398,-1.717557,24.9084,14.41985
-0.06703765,-8.544906,-5.48751,2.755725,24.91603,22.43511
0.7637503,-8.236053,-5.822699,-12.9542,28.03817,17.28244
0.521936,-7.905654,-5.430049,-12.77099,42.63359,17.29008
0.9768343,-8.099585,-5.781997,0.480916,40.83206,17.03817
0.5027823,-8.152257,-5.791574,-1.312977,46.56488,7.465649
1.620875,-8.003817,-5.904101,-2.839695,48.79389,16.77863
1.898602,-8.698134,-5.83467,0.4122138,61.0687,22.32061
0.5770026,-8.429984,-4.893748,-12.63359,46.21374,6.526718
1.058237,-8.674192,-5.243302,1.625954,19.77863,6.755725
1.644816,-8.288726,-4.766856,-2.389313,3.832061,17.87023
1.383849,-8.611943,-4.76925,3.10687,-9.610687,10.64886
1.838747,-8.377312,-5.075707,-1.725191,-23.17557,0.2748091
0.5602432,-8.738836,-5.6982,6.419847,-30.79389,2.0
1.51553,-7.855376,-5.279215,-0.8549618,-18.12214,-2.198473
0.260968,-8.643068,-5.770026,4.78626,-13.0916,-1.061069
-0.05267244,-8.374918,-5.511452,2.152672,-18.12214,-6.954198
0.1436521,-8.516175,-5.420473,3.305344,-19.49618,-6.870229
-0.05267244,-8.394072,-5.50427,2.198473,-21.74809,-11.71756
-0.09816227,-8.362947,-5.41329,2.251908,-28.12214,-14.99237
0.06943185,-8.322245,-5.657499,-0.1145038,-35.77863,-20.0229
0.1556231,-8.408437,-5.619191,-0.6412213,-34.1832,-19.32061
0.4884171,-8.286332,-5.468357,0.3740458,-30.0,-15.18321
0.4620809,-8.307879,-5.494693,-0.09160305,-22.53435,-10.08397
0.4333505,-8.408437,-5.566519,-2.305344,-13.50382,-7.48855
0.3351882,-8.279149,-5.482722,-3.763359,-6.450382,-5.503817
0.4237737,-8.494628,-5.755661,-0.9389313,-0.5419847,-0.2519084
0.2657564,-8.248025,-5.535394,0.04580153,4.541985,3.129771
0.2154782,-8.422802,-5.554548,2.916031,8.137404,6.099236
0.1867477,-8.312668,-5.521029,1.206107,11.47328,6.687023
0.1867477,-8.599973,-5.556942,2.450382,14.96947,8.770992
0.1819593,-8.386889,-5.449203,1.053435,17.1145,9.061069
0.2633622,-8.339005,-5.331887,-4.89313,20.49618,7.992366
0.3998317,-8.295909,-5.434838,-9.366412,21.54962,7.671756
0.3375824,-8.437167,-5.638345,-8.877863,26.51145,11.64886
0.296881,-8.255207,-5.707777,-3.839695,25.12214,14.29771
0.1723825,-8.334216,-5.645528,4.167939,24.30534,14.80916
0.4955997,-8.243237,-5.650316,-1.664122,23.72519,11.45802
0.6129156,-8.145074,-5.616797,-2.51145,26.48855,12.52672
0.5602432,-8.137892,-5.755661,-2.793893,24.73282,12.19847
0.4668693,-8.24563,-5.683835,3.89313,13.38168,12.12977
0.4381389,-8.346188,-5.274426,-0.1221374,-1.175573,5.38168
0.3375824,-8.456321,-5.231331,-4.770992,-10.51908,-8.229008
-0.1460463,-8.350976,-5.418078,-15.16031,-12.77863,-15.68702
0.05985504,-8.171411,-5.746084,-4.244275,-40.1145,-23.64122
0.3854665,-8.104373,-5.849035,-0.1908397,-36.19847,-19.94657
1.247379,-8.082825,-5.829881,1.763359,-17.18321,-9.656488
0.04309563,-8.197746,-6.167464,1.48855,-6.473282,-4.244275
-0.7230489,-8.35337,-6.430826,7.954198,-32.33588,-5.335878
-0.2537854,-7.795521,-6.174646,-5.328244,-17.07634,-6.946565
0.4022259,-7.898471,-6.150704,-9.366412,-14.9313,-3.503817
-0.6991069,-8.111555,-6.119579,-10.69466,-21.18321,-11.87023
-0.2418144,-8.295909,-6.306327,1.923664,-9.19084,-7.877862
-0.3830723,-7.927202,-6.162675,6.877862,7.374046,0.8854962
-0.1963245,-7.860164,-6.488286,0.5267176,16.86259,-1.748092
-0.3998317,-8.118738,-5.827487,10.74809,22.72519,4.70229
0.629675,-8.365341,-6.05733,13.94656,27.51145,9.854961
-0.9337386,-7.910442,-5.121197,20.10687,11.15267,3.541985
0.0,-8.65025,-5.600038,12.41985,1.21374,7.961832
0.1244985,-8.226477,-4.891354,-12.77099,5.290076,4.29771
-0.05506664,-8.571242,-5.489904,-1.305344,-7.89313,1.221374
0.6823475,-8.542512,-5.123591,-4.282443,-10.44275,-6.480916
1.108515,-8.750807,-5.006276,14.83206,8.793893,-3.236641
0.2992752,-8.556877,-5.334281,5.389313,7.793893,0.480916
0.05267244,-8.513782,-4.898537,1.580153,2.572519,0.2061069
0.5530606,-8.755595,-4.510676,-1.748092,2.618321,1.21374
0.9097966,-8.678981,-5.025429,1.030534,1.587786,3.175573
0.6320692,-8.908825,-4.946421,-4.992366,0.7175572,0.2519084
0.3998317,-8.540117,-4.711789,-2.549618,-13.46565,-2.442748
0.2346318,-9.500193,-5.595249,17.9771,-20.18321,-2.877863
0.01915361,-8.516175,-4.596867,-14.77863,1.664122,-7.80916
0.004788403,-8.23366,-4.88896,1.473282,-21.83969,-11.27481
0.3184288,-8.374918,-5.171476,-8.587787,-1.198473,0.1755725
-0.3232172,-8.231265,-5.324705,-8.236641,-4.580153,-2.091603
-0.2394202,-8.738836,-5.477933,1.366412,-14.12214,-6.152672
0.01197101,-8.63828,-5.125986,-5.244275,-3.824427,-5.175572
-0.3351882,-8.42759,-5.33907,-1.496183,-0.3740458,-6.045802
-0.7206547,-8.78672,-5.544971,1.816794,-8.274809,0.832061
-0.4932055,-8.585608,-5.722142,7.763359,-18.9771,2.282443
-0.4764462,-8.149862,-5.298368,-7.664122,-9.022901,-5.08397
-0.4908113,-8.137892,-5.822699,-8.557252,-6.145038,-3.076336
-0.5075707,-8.74123,-6.081272,-5.145038,-2.091603,2.030534
-0.6991069,-8.413225,-5.061342,-7.610687,-7.251908,-3.396947
-0.6727707,-8.497022,-5.41329,4.641222,5.305344,-0.5877862
-0.7924808,-8.688558,-5.279215,6.015267,19.8855,5.519084
-0.629675,-8.643068,-5.65271,1.854962,20.12977,9.679389
-0.9792285,-8.171411,-5.130774,6.343512,8.061069,8.480916
0.1747767,-8.485051,-5.499481,-0.6259542,12.48855,5.396946
-0.1244985,-8.305486,-5.123591,-0.2977099,11.28244,2.244275
0.308852,-8.817844,-5.346252,0.129771,14.52672,2.801527
-0.1149217,-8.465898,-5.181053,-0.9923664,11.36641,5.954198
0.2322376,-8.60955,-5.473145,-3.442748,10.8855,3.572519
0.6248866,-8.365341,-5.209783,-4.854962,11.29008,0.6641222
0.3112462,-8.403648,-5.724536,1.526718,9.854961,0.05343511
0.4405331,-8.508993,-5.535394,-3.954198,11.03053,1.358779
0.1699883,-8.343793,-5.221754,-6.465649,9.61832,1.801527
0.4381389,-8.645462,-5.451597,-4.839694,3.320611,1.183206
0.4788404,-8.475474,-5.336676,-2.618321,5.603054,0.9923664
0.3543419,-8.520964,-5.370194,-0.7022901,0.2748091,0.8931297
0.3806781,-8.394072,-5.408502,0.2671756,0.02290076,-0.3358779
0.3399766,-8.276755,-5.394136,-1.251908,1.099237,0.1679389
0.4094085,-8.384495,-5.425261,-3.603053,1.954198,-0.7022901
0.4357447,-8.329428,-5.60722,1.961832,1.022901,2.267176
0.5793968,-8.614338,-5.856217,10.49618,3.78626,8.496183
0.5865794,-8.207323,-5.298368,2.908397,10.51145,9.320611
0.3040636,-8.643068,-5.212177,-0.9160305,2.946565,3.312977
-0.1364695,-8.403648,-5.324705,-0.832061,-0.5114504,-3.343511
0.4812346,-8.698134,-5.497087,10.01527,-7.030534,7.122138
0.07422025,-8.286332,-4.836287,-2.580153,4.335878,4.656488
0.3806781,-8.674192,-5.370194,4.08397,7.412214,8.007633
0.5770026,-8.810662,-5.240908,10.41985,31.0687,11.80153
-0.8499416,-8.535329,-4.996699,-1.969466,-1.519084,-7.267176
0.03112462,-8.750807,-5.494693,-3.099237,1.221374,0.1984733
-0.4046201,-8.408437,-5.193024,-2.80916,-0.9923664,-1.442748
-0.1508347,-8.559271,-5.336676,-13.60305,-0.259542,-4.969466
-0.3998317,-8.487445,-5.540183,0.648855,-14.48855,-3.709924
0.1604115,-8.485051,-5.437232,8.076336,-11.00763,-4.80916
0.3256114,-8.458714,-5.331887,-1.732824,-7.29771,-8.755725
-0.5770026,-8.465898,-5.276821,-13.83969,-14.79389,-17.68702
-0.3280056,-8.322245,-5.57849,-1.129771,-25.03053,-12.85496
-0.01675941,-8.494628,-5.597643,-0.6641222,-26.06107,-14.75572
0.1771709,-8.286332,-5.604826,-1.572519,-20.35878,-14.55725
0.3734955,-8.336611,-5.604826,2.435115,-12.66412,-8.977099
-0.1005565,-8.468291,-5.750873,6.068702,-17.63359,-6.778626
0.05267244,-8.317456,-5.566519,8.366412,-17.39695,-2.076336
0.4764462,-8.336611,-5.425261,2.625954,-4.961832,-1.206107
0.01675941,-8.408437,-5.346252,-5.114504,5.832061,-1.877863
-0.01197101,-8.485051,-5.542577,1.396947,-1.038168,1.053435
0.1149217,-8.5473,-5.398925,-1.969466,2.793893,1.641221
0.1268927,-8.384495,-5.310339,-4.549618,10.92366,2.259542
0.1292869,-8.391677,-5.319916,5.70229,10.85496,8.824428
0.1244985,-8.504205,-5.284003,9.717557,10.66412,12.34351
0.08619126,-8.571242,-5.355829,6.145038,14.67939,10.34351
0.2944868,-8.418014,-5.305551,-3.755725,22.43511,12.05344
0.4309563,-8.631097,-5.288792,2.381679,28.89313,13.84733
0.07661445,-9.006987,-5.295974,9.312977,27.72519,16.28244
-0.08140286,-8.420407,-4.836287,-6.267176,23.64886,7.480916
-0.6033388,-8.686164,-4.898537,-0.5496183,9.374045,1.465649
-0.2035071,-8.690952,-5.078102,5.923664,-16.85496,-4.992366
0.1364695,-8.724471,-5.023035,-0.832061,-1.396947,-2.427481
0.08619126,-8.659827,-4.623203,-8.167939,5.137404,-3.519084
-0.3663129,-8.827422,-4.93445,1.381679,-3.664122,-1.564886
0.06703765,-8.801085,-4.927267,1.381679,-3.664122,-3.389313
0.1197101,-8.681376,-4.96318,-0.07633588,-4.458015,-4.587786
-0.1699883,-8.525752,-5.212177,1.129771,-9.824428,-4.694656
-0.3256114,-8.53054,-4.96318,-4.59542,-14.66412,-9.633588
0.03830723,-8.619126,-5.193024,-4.030534,-13.72519,-8.030535
0.3663129,-8.616732,-5.137957,1.267176,-9.938931,-2.160305
0.1221043,-8.695741,-5.032612,0.4961832,-7.709924,-2.755725
0.1436521,-8.5473,-5.104438,-1.236641,-4.374046,-1.473282
0.2561796,-8.532935,-5.214571,-2.625954,0.9236641,-0.6870229
0.3016694,-8.513782,-5.078102,-4.061069,1.076336,1.175573
0.1532289,-8.599973,-5.087678,0.1526718,3.946565,4.396946
-0.01197101,-8.714894,-5.291186,-0.6793893,9.053435,3.206107
-0.272939,-8.494628,-5.226542,-2.030534,1.916031,-1.885496
0.007182605,-8.559271,-5.195418,-0.2213741,-0.3435115,-0.4580153
0.1101333,-8.662222,-5.106832,-1.778626,1.381679,1.442748
-0.1508347,-8.525752,-5.133168,-2.984733,0.4503817,0.351145
0.06703765,-8.525752,-5.12838,0.389313,3.068702,2.80916
0.1508347,-8.516175,-5.152322,0.09160305,1.603053,1.603053
0.03591302,-8.470686,-5.195418,-0.4885496,2.877863,0.09160305
0.06224924,-8.585608,-5.245696,-2.709924,2.0,-1.80916
0.1125275,-8.568848,-5.209783,-3.824427,3.480916,-1.274809
0.1867477,-8.528147,-5.298368,-1.618321,5.496183,1.076336
0.2513912,-8.441956,-5.178658,-1.473282,5.51145,1.900763
0.237026,-8.566454,-5.331887,-0.5267176,5.801527,1.70229
0.5961562,-8.480263,-5.288792,-0.5954198,7.526718,2.335878
0.3303998,-8.334216,-5.027823,-8.19084,11.22137,3.015267
0.344765,-8.532935,-5.166687,-1.458015,11.19847,5.251908
0.4285621,-8.564059,-5.212177,5.221374,9.358779,7.267176
0.4022259,-8.48984,-5.154716,1.816794,8.106871,7.167939
0.1819593,-8.669404,-5.252879,-3.877863,7.045802,3.335878
0.617704,-8.724471,-5.274426,-0.007633588,7.847328,7.435114
-0.1053449,-8.386889,-5.056554,-0.7022901,2.427481,1.641221
0.28491,-8.331821,-5.250484,-4.152672,5.091603,6.801527
-0.1268927,-8.568848,-5.590461,-2.877863,-1.381679,4.541985
0.830788,-8.243237,-5.659893,-9.114504,23.01527,9.083969
-0.9313444,-8.834604,-5.485116,0.9847328,-2.152672,6.29771
0.06943185,-8.204929,-5.449203,-13.12214,1.618321,-1.580153
0.1316811,-8.276755,-5.398925,-1.633588,5.885496,4.335878
-0.3878607,-8.59279,-5.33907,-3.114504,-1.29771,-1.541985
0.04070143,-8.389283,-5.650316,-1.755725,1.603053,3.961832
0.1891419,-8.702923,-5.681441,8.969465,-0.6259542,3.175573
0.1364695,-8.458714,-5.102044,-3.954198,2.969466,-5.534351
0.5626374,-8.2169,-5.45878,-4.763359,-0.7862596,-3.80916
0.344765,-8.396465,-5.758055,-6.770992,-0.9847328,2.083969
0.4548983,-8.451532,-5.489904,7.465649,-12.8626,6.305344
0.6919243,-8.523358,-5.928043,4.526718,-0.7633588,2.335878
-0.4572925,-8.23366,-5.659893,2.045802,-9.129771,-12.03817
0.1795651,-8.283937,-5.853823,11.12977,-3.908397,-0.7862596
-0.2154782,-7.953538,-5.329493,0.7862596,-9.549619,-5.358778
0.1460463,-8.413225,-5.525817,-4.473282,12.14504,1.137405
-0.6775591,-8.59279,-5.779603,5.458015,-3.984733,-6.305344
-0.3878607,-8.252813,-5.530606,11.9771,-7.900764,-2.290076
-0.4213795,-8.212111,-5.439626,-2.59542,-10.16794,-11.19084
-0.5171475,-8.279149,-5.372589,-7.816794,-16.83206,-14.22137
0.06943185,-8.429984,-5.628768,-4.473282,-17.12977,-13.74809
0.02633622,-8.607155,-5.626374,-6.427481,-9.335877,-8.557252
0.1436521,-8.360553,-5.477933,-5.282443,-8.603053,-3.954198
-0.1532289,-8.348581,-5.410896,-15.70229,-0.03053435,-0.2900764
-0.2801216,-8.274361,-5.485116,2.038168,-0.09923664,-1.229008
0.1101333,-8.434772,-5.858612,7.603054,-0.7251908,-1.007634
-0.4812346,-8.42759,-5.844246,5.992366,-6.412214,-5.923664
-0.1005565,-8.001422,-5.77242,4.740458,-4.526718,-2.351145
0.1484405,-8.327033,-5.688623,8.832061,-0.5038168,-0.2442748
0.2298434,-8.367735,-5.425261,6.564886,3.038168,3.129771
0.1580173,-8.37013,-5.288792,5.526718,4.137404,3.40458
0.04548983,-8.51857,-5.197812,4.419847,5.10687,3.969466
-0.03591302,-8.465898,-5.061342,-0.007633588,3.145038,3.061069
-0.01915361,-8.520964,-5.051765,-1.725191,0.2442748,3.068702
-0.1460463,-8.614338,-5.063736,0.1603053,-3.954198,2.580153
0.06943185,-8.707711,-5.032612,-4.267176,-4.21374,-1.335878
0.1867477,-8.379706,-5.099649,-6.900764,-2.78626,0.4656488
0.04788403,-8.664616,-5.432444,-4.145038,-2.229008,1.343511
0.1316811,-8.724471,-5.358223,-2.343511,0.07633588,0.1526718
0.2154782,-8.360553,-5.434838,-2.587786,4.007634,0.8625955
0.1125275,-8.599973,-5.535394,2.526718,4.625954,0.5343512
0.225055,-8.559271,-5.506664,3.412214,5.816794,1.450382
0.1987187,-8.403648,-5.437232,0.9389313,7.664122,1.664122
0.09097966,-8.461109,-5.341464,-1.519084,6.572519,1.145038
0.260968,-8.468291,-5.257667,-1.045802,5.740458,-1.793893
0.5410896,-8.47308,-5.609614,-1.885496,7.160306,-0.01526718
0.4046201,-8.367735,-5.343858,-2.160305,3.755725,-0.4122138
0.3112462,-8.528147,-5.33907,-5.076336,2.59542,-0.6564885
0.2992752,-8.477868,-5.250484,-4.175572,0.3358779,-1.320611
0.3639187,-8.480263,-5.475539,-2.10687,-0.4656488,-0.4961832
0.2944868,-8.456321,-5.391742,5.480916,-2.679389,1.351145
0.248997,-8.425196,-5.420473,4.694656,-1.824428,2.984733
0.03351882,-8.396465,-5.406107,5.137404,-0.2977099,4.198473
-0.01436521,-8.379706,-5.449203,3.10687,1.877863,4.870229
-0.05267244,-8.458714,-5.363012,3.038168,3.160305,2.870229
0.009576806,-8.389283,-5.257667,0.9847328,6.274809,4.664122
-0.2346318,-8.413225,-5.276821,-0.2519084,7.938931,5.679389
-0.5027823,-8.542512,-5.305551,-0.6717557,1.801527,4.061069
-0.332794,-8.458714,-5.221754,3.725191,-3.740458,-1.251908
0.04788403,-8.59279,-5.121197,-1.274809,4.137404,-0.3282443
-0.2059013,-8.571242,-5.231331,-2.900763,4.847328,-1.847328
-0.3375824,-8.585608,-5.346252,-5.0,2.900763,-4.167939
-0.320823,-8.461109,-5.29358,-4.450382,1.671756,-1.763359
0.02154782,-8.482656,-5.434838,-7.038168,2.580153,-2.694656
-0.02633622,-8.511387,-5.422867,-7.61832,3.572519,-1.320611
-0.04788403,-8.429984,-5.600038,-4.549618,1.519084,-0.3587786
-0.05506664,-8.37013,-5.564125,-3.625954,1.480916,1.687023
-0.1939303,-8.477868,-5.676652,1.587786,-1.152672,0.8473283
-0.1340753,-8.348581,-5.564125,1.541985,-3.557252,0.7099237
-0.1005565,-8.317456,-5.659893,2.656489,-4.007634,-1.343511
-0.04309563,-8.291121,-5.741296,5.664122,-3.328244,-1.526718
0.237026,-8.305486,-5.401319,3.946565,-2.358779,-3.328244
0.4141969,-8.336611,-5.286397,0.6412213,-1.335878,-2.70229
0.3112462,-8.453926,-5.635951,-5.015267,-0.1450382,-6.541985
0.4237737,-8.39886,-5.41329,-3.763359,0.09923664,-3.992366
0.2274492,-8.422802,-5.465962,2.389313,0.0610687,2.290076
0.2322376,-8.456321,-5.509058,0.2290076,-1.236641,1.10687
0.4189853,-8.449138,-5.544971,-0.5877862,0.2748091,0.9694656
0.3782839,-8.3821,-5.3678,2.80916,2.931298,5.290076
0.2801216,-8.429984,-5.434838,3.694656,3.389313,4.21374
0.1651999,-8.456321,-5.363012,2.977099,3.664122,3.610687
0.1125275,-8.528147,-5.317522,0.4122138,3.885496,1.870229
0.05506664,-8.544906,-5.317522,0.4503817,2.122137,1.610687
-0.05027823,-8.525752,-5.295974,1.083969,1.366412,1.282443
-0.009576806,-8.616732,-5.3678,6.740458,-0.6183206,1.351145
-0.03591302,-8.449138,-5.051765,-0.1374046,-2.89313,-1.801527
-0.07661445,-8.719683,-5.169082,2.480916,-2.992366,-1.664122
-0.1316811,-8.537724,-5.209783,2.061069,-3.748092,-0.9847328
-0.1939303,-8.554482,-5.114015,0.4885496,-5.053435,-2.748092
0.1651999,-8.554482,-5.444415,-2.480916,-4.358778,-0.09160305
-0.3639187,-8.470686,-5.197812,-6.992366,-6.160306,-3.351145
-0.2442086,-8.554482,-4.977545,-1.389313,-5.641222,-2.931298
-0.007182605,-8.724471,-5.403713,2.587786,-5.236641,-1.312977
0.05267244,-8.626308,-5.12838,0.351145,-1.282443,1.725191
-0.4477157,-8.65025,-5.243302,3.587786,-3.0,1.717557
-0.28491,-8.528147,-5.025429,1.496183,-2.10687,-1.183206
-0.3375824,-8.734048,-5.432444,4.29771,-2.259542,1.335878
-0.2011129,-8.573636,-5.300763,5.847328,-2.923664,2.862595
-0.007182605,-8.676587,-5.152322,-0.8396947,2.29771,1.519084
-0.4357447,-8.674192,-5.17387,-0.8015267,3.671756,1.053435
-0.3998317,-8.583213,-5.21936,-4.473282,6.282443,1.732824
-0.4453215,-8.556877,-5.501875,-4.89313,0.2900764,5.931298
-0.521936,-8.169016,-4.707001,-11.61832,0.6335878,-2.160305
-0.2825158,-8.702923,-5.185841,-16.28244,4.801527,-0.3129771
-0.6871359,-8.578424,-5.446809,-6.251908,0.6641222,-1.656489
-0.3711013,-8.439561,-5.604826,-4.396946,-7.984733,-4.755725
-0.6344634,-8.310274,-5.566519,-0.3435115,-13.20611,-6.877862
0.09337386,-8.37013,-5.626374,0.5038168,-4.59542,-0.4885496
-0.1173159,-8.14268,-5.408502,-2.961832,7.335878,1.557252
-0.3064578,-8.365341,-5.762844,-0.1145038,7.70229,4.259542
-0.521936,-8.3821,-5.523423,-0.2061069,2.015267,-0.3664122
-0.4740519,-8.264784,-5.674258,1.80916,-0.9923664,-0.5954198
-0.3974375,-8.360553,-5.683835,3.435115,-1.450382,1.038168
-0.4261679,-8.492233,-5.568913,5.38168,-1.229008,1.748092
-0.2442086,-8.286332,-5.580884,1.977099,-0.3053435,0.007633588
-0.3782839,-8.362947,-5.590461,1.526718,0.05343511,0.5343512
-0.4213795,-8.389283,-5.422867,2.473282,0.5267176,-0.8778625
-0.3711013,-8.458714,-5.50427,1.061069,1.908397,-1.236641
-0.3375824,-8.429984,-5.41329,-2.534351,3.236641,-1.259542
-0.6272808,-8.480263,-5.686229,0.9083969,-2.396947,-1.748092
-0.1891419,-8.520964,-5.274426,-1.877863,0.7251908,0.8931297
-0.4141969,-8.48984,-5.300763,-2.870229,2.587786,-0.519084
0.03112462,-8.669404,-5.346252,3.984733,5.793893,3.458015
-0.3519476,-8.585608,-5.281609,1.114504,8.687023,5.923664
-0.830788,-8.377312,-5.463568,0.5877862,5.419847,1.061069
-0.6009446,-8.41083,-5.382165,4.725191,-3.916031,1.679389
-0.3280056,-8.23366,-5.461174,-1.358779,-3.061069,2.122137
-0.4884171,-8.355764,-5.372589,-8.862596,-5.076336,-0.007633588
-0.1651999,-8.264784,-5.559336,-17.32825,-7.19084,-4.89313
-0.3830723,-8.394072,-5.657499,-13.26718,-4.770992,-4.030534
-0.5530606,-8.482656,-5.872977,-4.496183,-6.923664,-4.137404
-0.5075707,-8.176199,-5.664681,-7.08397,-2.40458,0.8167939
-0.7398083,-8.066066,-6.030994,-3.251908,-3.29771,0.3740458
-1.197101,-8.377312,-6.265626,0.4045802,-16.98473,-0.778626
-0.902614,-7.66384,-5.659893,-3.946565,-20.28244,-5.641222
-0.4429273,-8.595184,-6.038177,-1.839695,-6.625954,-5.59542
-1.118092,-7.999028,-5.770026,-3.870229,4.633588,-5.557252
-1.891419,-8.152257,-6.162675,12.32061,-7.045802,-9.015267
-1.529895,-7.951144,-5.813122,6.519084,-6.877862,-9.366412
-1.165976,-8.169016,-5.810728,10.75572,-5.89313,-4.061069
-0.3567361,-8.259995,-6.138733,-1.709924,1.167939,3.198473
-0.7469909,-7.714118,-5.3678,-5.923664,2.832061,4.312977
-0.4596867,-8.190564,-5.688623,4.969466,3.229008,7.641222
-0.5793968,-8.295909,-5.705383,3.335878,2.89313,4.282443
-0.6464345,-8.267179,-5.829881,-3.183206,1.587786,1.274809
-0.5386954,-8.257602,-5.451597,0.961832,1.748092,2.083969
-0.4501099,-8.403648,-5.815516,-1.29771,4.801527,0.4656488
-0.2346318,-8.51857,-5.777209,2.40458,5.389313,-0.4961832
-0.3351882,-8.372523,-5.674258,-1.725191,10.39695,-1.175573
-0.4141969,-8.415619,-5.604826,2.229008,7.122138,-0.5648855
-0.7134721,-8.315063,-5.588067,2.274809,1.679389,-2.030534
-0.5554548,-8.209718,-5.6982,0.1908397,-0.9923664,-3.427481
-0.3687071,-8.394072,-5.628768,0.06870229,1.671756,-1.0
-0.4860229,-8.418014,-5.870583,-1.183206,-0.5496183,-3.320611
-0.4070143,-8.47308,-5.619191,-1.381679,-0.1908397,-3.923664
-0.3567361,-8.259995,-5.365406,-2.740458,0.1755725,-2.793893
-0.3543419,-8.437167,-5.600038,-0.7480916,-1.328244,-3.114504
-0.1604115,-8.573636,-5.609614,-0.1374046,0.5877862,-2.114504
0.1173159,-8.480263,-5.494693,4.473282,5.847328,0.6717557
-0.1675941,-8.516175,-5.585672,5.687023,4.610687,1.21374
-0.1101333,-8.39886,-5.437232,3.870229,1.885496,-1.633588
-0.1915361,-8.415619,-5.331887,3.10687,-1.137405,-0.4274809
-0.2705448,-8.406042,-5.286397,1.824428,-1.732824,-0.8778625
-0.4548983,-8.403648,-5.425261,1.221374,-2.908397,-1.312977
-0.3926491,-8.403648,-5.365406,2.679389,-1.51145,-1.145038
-0.6009446,-8.420407,-5.403713,-0.2213741,0.6641222,-0.1755725
-0.4525041,-8.456321,-5.559336,0.7938931,2.610687,-0.1679389
-0.2633622,-8.286332,-5.62398,-1.335878,10.12214,3.80916
-0.56982,-8.360553,-5.544971,-1.572519,6.442748,-0.4885496
-0.2633622,-8.449138,-5.410896,-0.9923664,5.068702,-1.007634
-0.4118027,-8.394072,-5.29358,-4.572519,7.89313,-0.2290076
-0.2753332,-8.619126,-5.348647,-0.01526718,6.526718,1.709924
-0.4022259,-8.413225,-5.262455,-2.977099,3.519084,0.1908397
-0.2657564,-8.420407,-5.415684,1.251908,-1.534351,-2.709924
-0.1436521,-8.449138,-5.406107,-1.496183,-2.21374,-2.10687
0.1580173,-8.415619,-5.664681,0.3587786,-0.2748091,1.015267
-0.1771709,-8.439561,-5.465962,-1.068702,1.648855,0.9236641
0.01675941,-8.441956,-5.444415,2.320611,-0.5419847,1.427481
0.04070143,-8.420407,-5.437232,0.4274809,1.572519,-1.335878
-0.07661445,-8.374918,-5.468357,-1.923664,4.580153,-0.6335878
0.1484405,-8.492233,-5.437232,1.236641,1.870229,-1.51145
0.1508347,-8.480263,-5.32231,2.465649,3.419847,-0.5038168
0.004788403,-8.59279,-5.274426,7.862596,-1.274809,-1.534351
-0.2681506,-8.62152,-4.972757,2.732824,-4.236641,-2.48855
-0.3280056,-8.456321,-5.212177,1.450382,-14.22901,-9.099236
-0.1173159,-8.556877,-5.365406,1.358779,-19.37405,-9.671756
0.01436521,-8.463503,-5.245696,-2.221374,-17.61069,-9.40458
0.04788403,-8.580819,-5.130774,-4.526718,-12.96183,-9.473283
0.3303998,-8.571242,-5.353435,0.5801527,-8.557252,-7.526718
0.1556231,-8.607155,-5.209783,0.648855,-3.534351,-3.603053
0.1268927,-8.576031,-5.243302,3.564885,-0.6564885,-0.1526718
0.1651999,-8.537724,-5.262455,0.1374046,2.984733,1.679389
0.2920926,-8.456321,-5.152322,-2.618321,5.770992,4.839694
0.3399766,-8.540117,-5.090073,-1.335878,10.0916,6.839694
0.1101333,-8.640674,-5.255273,2.954198,9.496183,8.732824
0.2178724,-8.520964,-5.363012,7.229008,12.68702,8.778625
-0.05267244,-8.561666,-4.831499,-1.748092,14.35878,10.68702
-0.3280056,-8.508993,-4.874595,-13.37405,9.290076,-1.091603
-0.09816227,-8.602366,-5.394136,-6.198473,3.557252,-0.7633588
0.1843535,-8.520964,-5.231331,-2.366412,5.21374,2.007634
0.1532289,-8.535329,-5.33907,-1.374046,2.114504,2.137405
0.6464345,-8.659827,-5.291186,-0.6335878,15.83206,6.763359
-0.2537854,-8.154651,-5.063736,-4.503817,-0.7251908,-1.320611
0.6129156,-8.647857,-5.410896,-7.977099,5.374046,-1.381679
-0.2394202,-8.286332,-4.982334,1.587786,-5.419847,-3.114504
0.4860229,-8.719683,-5.741296,6.374046,-4.091603,0.6564885
0.5770026,-8.520964,-5.422867,0.3740458,9.122137,5.19084
0.3399766,-8.482656,-5.288792,-4.679389,5.473282,0.4274809
0.4572925,-8.549694,-5.480328,3.603053,5.51145,5.816794
0.06703765,-8.422802,-5.274426,-0.07633588,0.778626,1.045802
0.09097966,-8.599973,-5.480328,2.587786,1.374046,2.160305
-0.06703765,-8.425196,-5.295974,1.022901,-0.6870229,0.4656488
-0.1628057,-8.602366,-5.26485,4.022901,-2.618321,-0.3816794
-0.02394202,-8.578424,-5.245696,4.08397,-1.984733,-1.900763
0.06943185,-8.475474,-4.927267,0.5648855,3.152672,0.5419847
0.04070143,-8.525752,-4.977545,1.114504,6.709924,2.854962
-0.4884171,-8.686164,-5.161899,4.21374,-7.48855,-1.770992
0.2585738,-8.714894,-5.049371,2.381679,-4.053435,-1.015267
-0.05267244,-8.652645,-4.881777,0.5572519,-2.236641,-1.954198
0.1723825,-8.717288,-4.987122,0.0610687,1.908397,0.4885496
0.01915361,-8.583213,-4.886566,-0.04580153,1.740458,2.183206
-0.260968,-8.528147,-4.876989,-0.4885496,-2.503817,-1.412214
0.05746084,-8.801085,-5.051765,5.610687,-0.2213741,2.648855
-0.1221043,-8.655039,-4.817134,-5.389313,-0.5572519,-2.389313
-0.04788403,-8.714894,-5.032612,-0.8091603,3.145038,0.1984733
-0.08140286,-8.698134,-4.912902,-2.80916,4.480916,0.3587786
0.06943185,-8.681376,-5.106832,-2.572519,4.0,1.816794
-0.1963245,-8.643068,-5.090073,-4.030534,3.770992,0.389313
0.0,-8.623915,-5.075707,-1.908397,0.778626,0.9083969
-0.01436521,-8.657434,-5.142745,-3.061069,2.938931,-0.2824428
0.03591302,-8.599973,-5.250484,-4.412214,3.229008,0.05343511
0.05985504,-8.561666,-4.972757,-6.435114,7.038168,-1.152672
0.2705448,-8.678981,-5.284003,-1.839695,11.1145,1.48855
0.2394202,-8.681376,-5.363012,6.343512,13.15267,5.152672
0.1651999,-8.439561,-5.250484,5.366412,13.75572,7.412214
0.03351882,-8.537724,-5.245696,2.633588,11.92366,6.007634
-0.1795651,-8.590396,-5.204995,-0.0610687,4.358778,2.114504
-0.1412579,-8.607155,-5.29358,4.183206,-7.648855,-1.618321
0.3184288,-8.626308,-5.161899,5.427481,-8.221375,-1.083969
0.07422025,-8.406042,-4.932055,-2.885496,-6.572519,-0.9389313
-0.07900865,-8.690952,-5.0374,7.015267,-11.19084,-2.396947
-0.007182605,-8.640674,-4.661511,-9.984733,-5.480916,-8.755725
0.05027823,-8.935161,-4.841076,-12.58779,3.557252,-4.870229
0.1173159,-8.647857,-5.164293,-0.1068702,-6.29771,0.6564885
-0.09816227,-8.614338,-5.0374,4.755725,-15.01527,-2.015267
0.3615245,-8.652645,-5.066131,4.969466,-7.80916,-2.076336
-0.1508347,-8.523358,-5.032612,0.7709923,-5.442748,-0.9083969
-0.3998317,-8.571242,-5.236119,-0.9007633,-13.54962,-5.656488
-0.3950433,-8.437167,-4.850653,-13.34351,-13.73282,-14.06107
-0.08858546,-8.63828,-5.207389,-6.778626,-13.9542,-14.92366
0.02394202,-8.645462,-5.616797,1.328244,-5.984733,-3.687023
0.3854665,-8.374918,-5.262455,-9.38168,-2.038168,-3.984733
-0.2537854,-8.453926,-5.45878,4.748092,-19.55725,1.496183
0.4908113,-8.556877,-5.365406,-4.152672,1.267176,-0.1984733
-0.5650316,-8.571242,-5.439626,10.64122,-11.18321,1.671756
-0.260968,-8.657434,-5.628768,9.854961,-13.29771,-3.862595
0.4165911,-8.24563,-5.018247,-1.519084,-11.12214,-7.076336
0.85473,-8.583213,-5.327099,1.114504,-1.816794,-1.473282
-0.3687071,-8.750807,-5.341464,-4.854962,0.09923664,0.5572519
-0.4261679,-8.580819,-5.080496,-4.145038,-5.435114,-2.351145
-0.3591303,-8.678981,-5.032612,8.534351,-9.885496,0.7099237
-0.5506664,-8.595184,-5.327099,10.06107,-17.41985,0.389313
-0.5482722,-8.643068,-5.331887,0.08396947,-24.31298,-9.167939
-0.3615245,-8.540117,-4.685453,-0.6870229,-22.60305,-12.64122
0.05506664,-8.939949,-5.003881,0.6870229,-9.389313,-5.389313
-0.1795651,-8.978256,-4.726154,8.664123,1.633588,1.221374
-0.5051765,-8.746018,-4.371812,8.900764,3.290076,1.778626
-0.4979939,-8.868123,-4.537012,2.038168,7.229008,-0.7862596
-0.3663129,-8.710106,-4.498705,-4.175572,12.0,0.09923664
-0.320823,-8.92319,-4.570531,-2.427481,10.87786,-0.7709923
-0.4094085,-8.820239,-4.323928,-0.05343511,9.396947,1.114504
-0.3782839,-9.07163,-4.367024,5.137404,11.25191,0.3969466
-0.3423708,-9.13388,-4.446033,-1.778626,12.14504,1.458015
-0.3687071,-9.057265,-4.469975,-0.4503817,6.641222,4.19084
-0.5243302,-8.825027,-4.431667,-2.030534,2.541985,0.9465649
-0.2322376,-8.925584,-4.627992,-0.6412213,3.992366,1.938931
-0.2394202,-8.860941,-4.537012,-5.374046,8.465649,0.3816794
-0.02394202,-8.89446,-4.642357,1.503817,7.015267,1.442748
0.1221043,-9.054871,-4.673482,6.984733,14.08397,8.091603
-0.2801216,-8.860941,-4.424485,4.572519,15.77099,8.969465
0.04548983,-8.911219,-4.22816,-14.96183,24.93893,6.969466
-0.1173159,-8.777143,-4.668694,15.20611,15.1145,13.00763
-0.1340753,-8.992621,-3.993528,-2.946565,23.30534,-0.6946565
-0.06943185,-9.018958,-4.362236,5.038168,18.28244,8.083969
-0.5123591,-8.681376,-4.211401,-13.16794,18.23664,3.59542
-0.1699883,-9.169792,-4.520253,-5.679389,-1.961832,3.007634
0.1125275,-9.009381,-4.637568,9.183207,-2.045802,3.51145
-0.03112462,-8.717288,-4.424485,-3.664122,-5.129771,-6.801527
-0.07661445,-8.872911,-4.584896,-5.320611,-2.618321,-4.114504
-0.2154782,-8.904037,-4.601655,-0.7480916,-7.824428,-4.412214
0.1197101,-8.89446,-4.525041,-0.5725191,-6.801527,-5.114504
-0.4644751,-9.009381,-4.601655,-7.908397,-13.21374,-16.41221
0.06943185,-9.01417,-4.687847,-3.145038,-15.77863,-9.465649
-0.4261679,-8.887277,-5.221754,7.648855,-17.86259,3.78626
-0.6344634,-8.76996,-4.683059,0.2061069,-16.07634,-7.221374
-0.3519476,-8.889671,-4.762067,-11.1374,6.870229,-2.351145
-0.9193734,-9.19134,-5.216966,-4.396946,-7.183206,4.870229
0.01436521,-8.135497,-4.967968,-8.587787,6.725191,2.541985
-0.02873042,-8.870518,-5.233725,-13.51145,14.38168,-1.160305
0.7134721,-8.497022,-5.513846,12.15267,24.75573,18.74809
-0.2657564,-7.058106,-5.511452,-24.18321,16.98473,-6.770992
0.7589619,-8.492233,-5.6982,-24.46565,26.65649,9.167939
0.7374141,-8.465898,-5.693412,-13.12977,19.0458,5.374046
0.7757214,-8.331821,-5.288792,1.633588,11.58779,8.106871
0.5674258,-8.437167,-5.518635,0.9083969,8.641221,6.198473
0.4884171,-8.305486,-5.590461,0.1068702,0.03816794,4.732824
1.01993,-8.327033,-5.901707,-9.694656,9.893129,-2.839695
0.8930372,-8.355764,-5.341464,7.351145,10.01527,-0.6259542
0.7517793,-8.259995,-6.054936,8.511451,5.992366,6.458015
0.3687071,-8.013393,-5.657499,14.32061,-2.671756,7.236641
0.5913678,-8.355764,-5.525817,2.083969,-0.007633588,0.2519084
0.8403648,-8.286332,-5.286397,-2.564885,6.534351,2.587786
0.3423708,-8.453926,-5.482722,0.6870229,1.908397,3.801527
0.1963245,-8.760384,-5.26485,3.389313,-8.106871,-0.6030535
-0.02873042,-9.157822,-5.410896,19.18321,-15.30534,-4.961832
0.6009446,-8.010999,-4.944026,7.068702,-13.06107,-7.671756
0.3687071,-8.458714,-4.8722,-10.03817,-7.839694,-9.564885
-0.2202666,-8.731653,-5.343858,13.82443,-23.21374,2.129771
-0.4357447,-8.329428,-4.970363,-4.328244,-27.63359,-12.9542
0.06703765,-8.595184,-5.291186,0.4503817,-32.1832,-14.25191
0.1723825,-8.540117,-5.307945,-0.03053435,-24.06107,-6.801527
-0.308852,-8.556877,-5.116409,1.015267,-30.37405,-9.198473
-0.1292869,-8.556877,-5.195418,-3.832061,-27.14504,-13.18321
-0.1532289,-8.59279,-5.288792,-2.977099,-20.9313,-9.122137
-0.1436521,-8.451532,-5.185841,-0.5801527,-23.39695,-9.335877
-0.1795651,-8.480263,-5.363012,-2.198473,-16.93893,-3.572519
-0.4477157,-8.520964,-5.190629,-2.251908,-12.45802,-3.267176
-0.3399766,-8.92319,-5.377377,5.793893,-1.358779,-0.02290076
-0.5386954,-8.65025,-4.929661,7.022901,2.320611,3.564885
0.7924808,-8.116343,-4.805163,0.6564885,12.66412,-0.1068702
0.06224924,-8.836999,-5.11162,5.877862,2.167939,1.396947
-0.8379706,-8.932767,-5.415684,8.465649,-0.09923664,1.648855
-0.5099649,-8.463503,-4.642357,-4.51145,6.267176,-0.1145038
-0.2226608,-8.841787,-5.070919,2.396947,12.0458,4.755725
-0.3998317,-8.767567,-4.838682,-1.007634,13.75572,3.717557
-0.8451532,-8.942344,-4.812346,3.473282,6.167939,2.335878
-0.5554548,-8.798691,-4.76925,0.3587786,6.183206,2.946565
-0.4812346,-8.908825,-4.596867,-0.3969466,7.351145,2.236641
-0.2801216,-8.822633,-4.599261,-0.09923664,7.08397,2.938931
-0.248997,-8.774749,-4.845864,4.206107,3.419847,2.625954
-0.2681506,-8.784326,-4.668694,-0.6030535,5.198473,0.9083969
-0.593762,-8.834604,-4.886566,1.068702,-2.229008,-2.083969
-0.260968,-8.762778,-4.817134,-7.793893,-0.1526718,-3.709924
-0.2394202,-8.700529,-4.742914,1.51145,5.015267,0.6717557
-0.06224924,-8.78672,-4.733337,-4.40458,11.99237,1.282443
-0.3687071,-8.858546,-4.809951,0.5343512,6.08397,0.7557252
-0.1771709,-8.633492,-4.774038,-1.076336,4.030534,0.9083969
0.01675941,-8.880095,-4.929661,0.389313,6.282443,4.137404
-0.2801216,-8.719683,-4.699818,-3.59542,6.641222,1.587786
-0.1460463,-8.822633,-4.853047,-0.778626,4.419847,2.137405
-0.1699883,-8.777143,-4.982334,-1.122137,2.396947,-0.259542
-0.01197101,-8.762778,-4.819528,-2.557252,2.312977,-0.832061
0.1412579,-8.724471,-4.941632,-4.625954,9.832061,2.625954
-0.08858546,-8.578424,-4.924873,-5.641222,7.870229,2.19084
-0.1484405,-8.707711,-5.046977,0.8091603,4.183206,0.5801527
-0.04070143,-8.690952,-5.05416,0.9694656,0.480916,-0.8473283
-0.05746084,-8.793902,-4.924873,1.198473,1.48855,0.2900764
-0.03112462,-8.779537,-5.099649,0.5419847,0.3587786,0.129771
0.1149217,-8.678981,-4.929661,1.580153,3.961832,0.9007633
0.1173159,-8.717288,-5.073313,5.633588,5.0,5.610687
-0.03112462,-8.772355,-4.891354,-2.725191,6.206107,2.916031
-0.06943185,-8.614338,-4.817134,-5.08397,6.183206,4.137404
0.03112462,-8.631097,-5.159505,-2.427481,5.129771,3.977099
0.02154782,-8.640674,-4.922479,-4.435114,6.854962,2.801527
-0.06703765,-8.700529,-4.970363,-0.9694656,6.969466,3.755725
0.007182605,-8.674192,-5.001487,1.206107,8.343512,4.801527
0.1484405,-8.774749,-5.075707,2.473282,9.396947,5.015267
0.03112462,-8.647857,-5.011064,-0.961832,9.312977,2.519084
0.1436521,-8.631097,-4.91769,-1.267176,8.320611,2.427481
0.1651999,-8.643068,-5.075707,-1.900763,9.40458,3.709924
0.06224924,-8.664616,-5.099649,-2.80916,9.755725,5.282443
-0.06943185,-8.834604,-5.080496,-1.89313,9.526717,6.717557
0.2082956,-8.743625,-4.975151,-0.5038168,7.160306,3.572519
0.1460463,-8.63828,-5.109226,-4.343512,8.259542,2.549618
0.04788403,-8.662222,-5.181053,-7.198473,4.641222,-1.679389
0.2825158,-8.676587,-5.288792,-6.152672,2.312977,-1.59542
0.009576806,-8.561666,-5.252879,-2.015267,-6.343512,-2.946565
0.2202666,-8.50181,-5.286397,2.824427,-4.076336,-3.206107
0.2466028,-8.544906,-5.250484,3.664122,-6.549618,-0.7709923
0.4860229,-8.595184,-5.324705,4.938931,-3.977099,-0.4351145
0.225055,-8.499416,-5.006276,-0.5801527,0.01526718,0.9083969
-0.2106898,-8.453926,-5.0374,3.389313,-1.10687,2.687023
-0.2202666,-8.662222,-5.133168,5.244275,-8.610687,2.389313
-0.2537854,-8.66701,-5.090073,5.923664,-11.70992,-0.5572519
-0.02154782,-8.717288,-5.066131,4.61832,-11.20611,-0.7251908
-0.2059013,-8.779537,-4.805163,-1.732824,-7.51145,-2.053435
-0.4692635,-8.578424,-4.965574,-0.2519084,-9.824428,-4.931298
-0.1580173,-8.884883,-4.867412,5.442748,-7.656488,-0.5648855
-0.3399766,-8.760384,-4.819528,-2.038168,-2.19084,-0.2671756
-0.4860229,-8.60955,-4.862624,-0.7633588,-5.145038,-2.335878
-0.308852,-8.765172,-4.809951,3.793893,-2.29771,0.8167939
-0.4118027,-8.848969,-4.809951,1.328244,0.07633588,0.3664122
-0.6392518,-8.803479,-4.8722,3.778626,-3.580153,-2.320611
-0.5889736,-8.975863,-4.738125,3.984733,-2.938931,-0.3053435
-0.6536171,-8.583213,-4.422091,-7.053435,2.717557,-2.51145
-0.5722142,-9.052477,-4.850653,2.450382,2.412214,-1.129771
-0.5865794,-8.89446,-4.654328,-1.290076,1.183206,-0.1908397
-0.4620809,-8.825027,-4.654328,-4.21374,3.015267,-0.4274809
-0.3998317,-8.753201,-4.630386,-2.78626,1.198473,-0.832061
-0.5267244,-8.848969,-4.807557,2.145038,0.01526718,1.526718
-0.5099649,-8.784326,-4.817134,-1.19084,-1.251908,-1.198473
-0.28491,-8.820239,-4.819528,-1.778626,-0.2442748,-0.2290076
-0.3998317,-8.669404,-4.742914,-1.068702,-0.259542,0.5801527
-0.4285621,-8.820239,-4.836287,-3.396947,-1.572519,-1.709924
-0.4884171,-8.683769,-4.841076,0.8244275,-2.10687,-0.9236641
-0.4285621,-8.760384,-4.771644,-4.740458,-0.610687,-2.603053
-0.4285621,-8.710106,-4.853047,-1.465649,-1.725191,-1.374046
-0.4070143,-8.827422,-4.948815,-1.030534,-2.099237,-1.137405
-0.28491,-8.746018,-4.915296,-0.3358779,0.3435115,0.03053435
-0.3495534,-8.693346,-4.845864,-0.3969466,0.4656488,0.7480916
-0.5243302,-8.513782,-4.74052,-5.587786,4.816794,-2.664122
-0.2274492,-8.734048,-5.049371,-0.7480916,7.114504,1.007634
-0.320823,-8.717288,-4.944026,0.4198473,7.305344,0.06870229
-0.02394202,-8.947132,-4.900931,4.946565,8.641221,5.305344
-0.02394202,-8.810662,-4.896142,3.877863,9.21374,6.114504
-0.3878607,-8.810662,-4.807557,-1.534351,8.648855,0.9770992
-0.3471592,-8.664616,-4.929661,-2.679389,6.48855,0.5648855
-0.1197101,-8.65025,-5.020641,5.091603,0.9083969,4.748092
-0.1987187,-8.628703,-4.762067,-0.5267176,-4.740458,2.572519
-0.1436521,-8.710106,-5.130774,-3.312977,-7.923664,-2.946565
-0.2322376,-8.647857,-4.896142,-9.419847,-7.29771,-7.305344
-0.3734955,-8.736442,-5.147533,-6.412214,-10.83206,-9.59542
0.08858546,-8.832211,-5.145139,-1.038168,-7.557252,-5.145038
0.4620809,-8.626308,-4.958392,1.519084,7.236641,4.282443
-0.4596867,-8.724471,-5.121197,0.7175572,10.23664,2.854962
-0.4525041,-8.66701,-5.00867,-0.4961832,6.587786,2.381679
-0.2633622,-8.722076,-5.116409,-1.167939,2.946565,-0.6717557
-0.1197101,-8.729259,-5.090073,-0.8015267,3.59542,-0.1832061
-0.1029507,-8.60955,-5.231331,-1.10687,5.847328,-0.5038168
-0.08379706,-8.528147,-5.221754,-0.7251908,3.877863,0.8778625
-0.05506664,-8.535329,-5.145139,-0.8167939,1.633588,1.381679
-0.03112462,-8.671799,-5.116409,-2.755725,1.80916,0.2290076
-0.04788403,-8.604761,-5.099649,-0.7633588,1.664122,0.2213741
0.004788403,-8.559271,-5.097255,-0.05343511,0.5877862,-0.9389313
-0.002394202,-8.590396,-5.209783,-0.8015267,0.4427481,-0.1221374
0.03830723,-8.62152,-5.245696,0.8396947,1.854962,-0.1984733
0.02873042,-8.583213,-5.2026,0.9236641,1.038168,0.3740458
0.1077391,-8.571242,-5.109226,2.251908,0.2213741,0.3206107
0.06224924,-8.523358,-5.085284,0.4885496,-0.1908397,-0.5267176
-0.02394202,-8.635885,-5.171476,2.503817,-0.4656488,-0.5343512
0.05746084,-8.664616,-5.109226,0.4961832,0.3282443,0.2748091
-0.01436521,-8.676587,-5.058948,-0.129771,0.2900764,-1.076336
0.1460463,-8.635885,-5.11162,-0.4351145,1.450382,0.5572519
0.08619126,-8.695741,-5.068525,-0.3435115,1.068702,0.3664122
0.07182605,-8.722076,-5.109226,0.961832,1.648855,0.6717557
0.08858546,-8.597578,-5.12838,0.2213741,0.2213741,0.1068702
-0.03830723,-8.580819,-5.035006,0.3358779,0.7099237,0.8167939
-0.03591302,-8.717288,-5.255273,4.312977,-3.236641,-1.236641
-0.01915361,-8.62152,-4.774038,-2.29771,-1.748092,-6.465649
0.1891419,-8.707711,-4.975151,-5.007634,2.022901,-5.687023
-0.03112462,-8.755595,-5.075707,-1.274809,-0.4045802,-4.396946
0.2920926,-8.640674,-5.08289,-0.8396947,-1.076336,-3.938931
0.3974375,-8.628703,-5.051765,-4.358778,3.374046,-2.625954
0.2992752,-8.566454,-5.075707,-3.442748,3.748092,-0.1068702
0.4309563,-8.695741,-5.379771,-0.2137404,4.358778,0.6412213
0.4285621,-8.564059,-5.137957,-3.152672,7.015267,2.503817
0.3974375,-8.626308,-5.159505,-1.587786,7.458015,3.473282
0.3519476,-8.504205,-5.104438,3.603053,4.366412,2.885496
0.308852,-8.700529,-5.056554,2.618321,3.435115,3.641221
0.344765,-8.640674,-5.097255,2.633588,2.419847,2.740458
0.3112462,-8.523358,-5.027823,-0.6412213,0.5801527,0.2366412
0.3112462,-8.604761,-5.044583,-0.8549618,-1.51145,-1.206107
0.2513912,-8.659827,-5.044583,2.587786,-3.534351,-0.5725191
0.2801216,-8.695741,-4.879383,1.236641,-4.610687,-1.59542
0.3974375,-8.561666,-4.999093,1.10687,-5.969466,-1.824428
0.3016694,-8.578424,-4.891354,-0.7022901,-4.91603,0.7251908
0.308852,-8.753201,-5.018247,0.4961832,-2.633588,-0.4351145
0.3351882,-8.722076,-5.056554,-0.2671756,-1.412214,-2.068702
0.2513912,-8.676587,-4.977545,0.6335878,1.19084,-1.755725
0.2561796,-8.695741,-5.11162,2.847328,1.740458,0.5877862
0.2944868,-8.698134,-4.920084,1.587786,2.129771,2.267176
0.1316811,-8.635885,-4.994305,-2.427481,1.267176,-0.5419847
0.272939,-8.717288,-5.039794,0.1374046,1.007634,0.740458
0.2825158,-8.683769,-4.893748,0.7557252,1.503817,0.610687
0.1675941,-8.724471,-4.855441,0.4045802,1.465649,1.114504
0.1580173,-8.729259,-5.015852,0.03816794,0.6335878,0.5572519
0.06464344,-8.688558,-5.0374,-2.442748,-0.3129771,-0.2290076
0.2059013,-8.690952,-4.939238,-2.305344,1.549618,1.931298
0.1029507,-8.626308,-4.896142,-2.519084,0.389313,0.4732824
0.1843535,-8.707711,-4.99191,-0.1755725,-0.01526718,0.4732824
0.213084,-8.719683,-5.035006,-1.748092,0.5496183,-0.8244275
0.1005565,-8.681376,-5.046977,-1.206107,-0.04580153,-0.610687
0.1963245,-8.631097,-5.106832,-2.007634,-0.2366412,-1.916031
0.2537854,-8.631097,-5.200206,-1.030534,1.030534,-0.1755725
0.1604115,-8.590396,-5.152322,-1.473282,-0.05343511,-1.022901
0.2298434,-8.607155,-5.161899,-0.8549618,0.5038168,-0.4885496
0.2082956,-8.597578,-5.224148,-0.6259542,0.3358779,-0.4274809
0.2082956,-8.611943,-5.26485,0.6793893,1.091603,-0.7709923
0.3303998,-8.678981,-5.193024,1.251908,2.083969,0.4885496
0.3303998,-8.604761,-5.260061,1.396947,2.305344,0.4580153
0.2777274,-8.568848,-5.05416,0.870229,1.51145,0.7633588
0.1891419,-8.66701,-5.236119,2.274809,1.282443,0.5572519
0.1604115,-8.497022,-5.176264,-3.740458,1.114504,-0.6335878
0.06464344,-8.566454,-5.17387,-1.496183,0.5572519,0.129771
0.1963245,-8.604761,-5.233725,-1.076336,1.290076,1.267176
0.1747767,-8.578424,-5.020641,-1.274809,0.8549618,-0.3969466
0.1053449,-8.564059,-5.027823,-2.022901,1.21374,-0.4961832
0.1436521,-8.659827,-5.262455,0.9389313,0.7557252,0.07633588
0.1125275,-8.590396,-5.102044,1.396947,-1.137405,-0.7557252
-0.02873042,-8.59279,-5.169082,-0.648855,-5.343512,-3.320611
0.07900865,-8.50181,-5.032612,-2.29771,-5.129771,-4.251908
0.07900865,-8.439561,-5.154716,-2.931298,-5.725191,-2.633588
0.2944868,-8.48984,-5.267244,-6.503817,-4.694656,-2.862595
0.5003881,-8.394072,-5.501875,-9.282443,-1.847328,-2.496183
0.5530606,-8.422802,-5.552154,-9.832061,4.938931,-1.748092
0.7278373,-8.645462,-5.676652,-7.80916,8.908397,0.1450382
0.7972692,-8.255207,-5.346252,-5.244275,10.53435,1.335878
0.7230489,-8.252813,-5.614403,-1.923664,7.183206,1.709924
0.4716577,-8.283937,-5.619191,-1.40458,4.458015,1.450382
0.4740519,-8.537724,-5.736507,0.6641222,-0.02290076,-6.10687
0.7685388,-7.965509,-5.533,-0.610687,1.137405,-0.5648855
0.7206547,-8.11395,-5.966351,7.259542,-0.4198473,3.389313
0.9624691,-8.087613,-6.007052,5.961832,2.816794,5.122138
0.7182605,-8.09719,-5.722142,-2.671756,10.79389,5.839694
0.4333505,-8.094796,-6.05733,-6.458015,8.549619,6.061069
0.3160346,-8.015787,-5.281609,-19.58779,12.03817,4.572519
0.6200982,-8.523358,-6.34224,-5.664122,9.167939,4.061069
0.6991069,-7.960721,-5.916072,-3.137405,13.94656,9.038168
0.890643,-8.259995,-6.112397,5.267176,17.16794,11.0229
0.6895301,-7.790732,-5.779603,0.5954198,14.71756,9.572519
0.4908113,-8.477868,-5.693412,-15.84733,14.47328,1.259542
0.7326257,-8.140285,-5.858612,-3.648855,5.099236,-1.732824
0.7110779,-8.159439,-6.009446,5.244275,2.603053,2.274809
0.9888053,-8.106767,-6.169858,7.541985,-0.648855,5.954198
1.314417,-7.699753,-6.26802,6.877862,-4.679389,9.183207
0.4572925,-8.032547,-5.583278,-21.41985,-6.427481,-2.282443
1.118092,-7.838616,-5.509058,-6.541985,-1.389313,-6.580153
0.5386954,-8.463503,-6.588843,-3.671756,-2.541985,-5.778626
0.7278373,-7.568071,-6.351817,-11.84733,2.152672,-5.984733
0.4548983,-7.417237,-6.349423,-13.40458,0.7251908,-5.564886
0.7589619,-7.64708,-6.440403,-15.55725,3.40458,-5.48855
0.4094085,-8.12592,-6.737284,-4.358778,-0.3053435,-3.007634
0.7182605,-7.060501,-6.545747,-0.610687,-0.4427481,3.229008
0.4788404,-7.69257,-6.732495,-4.053435,-6.38168,-2.580153
0.7038953,-7.845799,-6.962338,13.38931,-3.824427,3.389313
0.6967127,-7.625533,-6.588843,16.68702,-0.5496183,5.816794
0.3375824,-7.587225,-6.291962,24.52672,0.06870229,11.0916
0.2011129,-7.874529,-6.229713,16.92366,-1.480916,5.267176
0.09576806,-7.76679,-6.014235,10.0687,-7.244275,1.358779
0.05746084,-8.171411,-6.100426,12.78626,-9.40458,-1.083969
0.1604115,-8.176199,-5.846641,3.824427,-4.778626,-3.587786
0.07422025,-8.276755,-5.554548,6.572519,-5.137404,-2.839695
0.2537854,-8.269572,-5.422867,5.0,-1.160305,0.519084
0.1340753,-8.559271,-5.430049,6.824428,-4.267176,-1.0
0.2178724,-8.78672,-5.188235,12.22901,-4.89313,-1.916031
0.5123591,-8.657434,-5.12838,13.59542,1.221374,0.1908397
0.1197101,-8.631097,-5.130774,9.152672,-0.04580153,-3.030534
-0.1125275,-8.985439,-4.168305,3.099237,-9.335877,-7.679389
0.320823,-7.81228,-5.523423,-30.03053,-7.610687,-17.28244
0.5099649,-9.325416,-5.2026,8.916031,-10.12977,-5.496183
0.4405331,-8.221688,-5.092467,11.12214,-6.564886,1.503817
0.5961562,-8.59279,-4.72376,-4.068702,-6.89313,-3.618321
0.1292869,-8.726865,-5.154716,-3.358779,-3.381679,-4.412214
-0.260968,-8.607155,-5.252879,-4.465649,-17.9771,-9.801527
0.1388637,-8.470686,-5.080496,-0.4580153,-24.70229,-12.22137
1.070208,-9.390059,-5.025429,4.145038,6.152672,1.198473
0.533907,-8.039729,-5.250484,-31.25191,5.465649,-2.679389
-0.5099649,-8.561666,-5.355829,20.08397,-30.96183,-9.061069
0.6368576,-8.465898,-4.941632,12.0687,-29.73282,-14.00763
0.5770026,-8.511387,-5.161899,19.9771,-0.7633588,3.145038
-0.05506664,-9.088389,-5.279215,10.64122,1.236641,2.793893
0.3734955,-8.497022,-4.659117,-5.152672,3.526718,-1.122137
0.06943185,-8.710106,-5.003881,-5.938931,1.969466,-0.7862596
0.1364695,-8.566454,-5.070919,-14.17557,7.10687,-0.07633588
0.1747767,-8.418014,-5.418078,-15.10687,10.41221,1.198473
0.3184288,-8.451532,-5.492299,-15.37405,11.29771,2.419847
0.2322376,-8.312668,-5.279215,-4.229008,4.152672,4.045802
0.2753332,-7.987057,-5.511452,-15.27481,-1.961832,-2.374046
0.4836287,-7.632715,-5.717354,-38.54962,6.175572,-9.015267
0.2059013,-7.852982,-6.43322,-41.17557,-0.7709923,-18.29771
1.118092,-7.941567,-6.665458,-21.99237,8.40458,-0.740458
0.938527,-7.539341,-7.050924,-16.96947,12.09924,0.02290076
0.7685388,-7.141904,-7.218518,-8.740458,10.98473,7.282443
0.8188169,-6.919243,-7.45315,-5.648855,3.862595,1.427481
1.106121,-6.885724,-7.457938,0.6793893,0.6641222,3.610687
1.161188,-7.431602,-7.273585,17.47328,1.496183,12.09924
0.902614,-7.323863,-6.892907,23.84733,2.503817,16.72519
0.4764462,-7.345411,-6.706159,22.45038,1.740458,14.78626
0.6991069,-7.680599,-6.445191,20.06107,0.8244275,11.47328
0.3136404,-8.037335,-6.356606,25.84733,-4.236641,7.847328
0.3758897,-7.905654,-5.987898,20.06107,-2.480916,5.19084
0.02154782,-8.276755,-5.753267,17.47328,-4.129771,0.6183206
0.1316811,-8.346188,-5.377377,13.28244,-5.854962,-1.557252
-0.02873042,-8.513782,-5.171476,9.343512,-8.770992,-2.610687
-0.1053449,-8.755595,-4.982334,14.38931,-15.07634,-2.198473
-0.2202666,-8.714894,-4.831499,7.534351,-20.0229,-2.961832
-0.3184288,-8.908825,-4.620809,4.885496,-28.0229,-7.847328
-0.3998317,-8.825027,-4.575319,-4.435114,-26.78626,-11.20611
-0.07661445,-8.528147,-5.020641,-11.85496,-25.45038,-12.70992
-0.1651999,-9.105149,-4.967968,8.832061,-23.98473,-7.320611
-0.1699883,-8.640674,-4.905719,0.5877862,-18.18321,-10.21374
-0.5889736,-8.858546,-4.865018,-3.839695,-16.38931,-8.717557
-0.5626374,-8.674192,-4.898537,-4.030534,-15.16794,-9.282443
-0.1675941,-8.674192,-4.88896,-1.267176,-3.435115,-4.221374
-0.8331822,-8.774749,-4.809951,-18.61069,4.08397,-5.114504
-0.7541735,-8.798691,-4.994305,-5.305344,-5.900764,-2.648855
-0.2106898,-8.734048,-5.152322,-1.770992,-12.48092,-8.992367
-0.04788403,-8.662222,-5.164293,9.778625,-12.19847,-4.625954
0.01436521,-8.568848,-5.046977,1.145038,-2.969466,-2.969466
-0.272939,-8.765172,-4.905719,-3.969466,-2.763359,-4.526718
-0.06703765,-8.662222,-4.735731,-1.740458,6.519084,-1.320611
-0.1580173,-8.8777,-5.078102,-3.832061,17.52672,0.2137404
-0.4860229,-8.76996,-5.379771,4.022901,17.03817,1.824428
-0.02873042,-8.671799,-5.197812,9.335877,17.13741,13.83969
0.4908113,-8.439561,-4.548983,-6.969466,34.12977,19.46565
-0.08858546,-8.801085,-4.580108,-1.671756,36.46565,19.03817
-0.1197101,-8.947132,-5.046977,1.29771,38.9542,21.41985
-0.1364695,-8.743625,-4.989516,-1.427481,48.54962,19.65649
-0.1340753,-8.631097,-4.81474,-6.030534,58.8855,25.55725
-0.06703765,-8.746018,-5.212177,0.3206107,55.51145,28.39695
0.2753332,-8.89446,-5.212177,-0.1526718,57.84733,26.69466
-0.1771709,-8.35337,-4.666299,-1.396947,46.9771,19.77863
0.3758897,-8.731653,-5.042189,-0.740458,37.48855,15.77099
0.332794,-8.671799,-4.915296,0.610687,31.37405,15.70992
0.1053449,-8.868123,-4.697424,-0.6030535,18.65649,7.412214
0.3040636,-8.705317,-4.584896,-1.053435,11.01527,4.022901
0.2394202,-8.7125,-4.876989,-1.282443,-0.8396947,3.442748
0.2082956,-8.719683,-4.668694,-4.21374,-10.48855,-4.358778
0.5913678,-8.858546,-4.848258,-4.045802,-11.61832,-7.022901
0.9911995,-8.734048,-4.951209,-3.045802,5.770992,-1.053435
-0.782904,-8.949526,-4.93445,13.54962,-36.33588,-16.87786
0.2944868,-8.676587,-4.838682,4.946565,-38.16031,-18.29008
0.7876924,-8.755595,-5.307945,5.625954,-24.21374,-10.94656
0.7637503,-8.51857,-4.812346,4.152672,-23.36641,-7.40458
0.2944868,-8.659827,-4.673482,-5.030534,-4.251908,-5.236641
0.2657564,-8.698134,-4.862624,-5.641222,5.389313,6.610687
-0.07661445,-8.734048,-4.905719,5.351145,-2.541985,1.48855
0.1149217,-8.992621,-4.946421,11.43511,-13.64886,-4.328244
0.4788404,-8.671799,-4.575319,-2.961832,4.160306,3.29771
-0.2082956,-8.882488,-4.771644,-0.7175572,9.587787,-2.78626
0.4596867,-8.836999,-4.967968,2.229008,0.3358779,-0.8931297
0.02873042,-8.803479,-4.781221,4.877862,3.068702,3.755725
-0.1364695,-8.848969,-4.714183,-3.183206,5.610687,-3.778626
0.5722142,-9.064447,-4.905719,3.938931,0.3587786,3.572519
-0.1388637,-8.662222,-4.436456,-2.114504,1.19084,2.167939
-0.03112462,-8.899248,-5.104438,0.6641222,-0.6030535,1.374046
0.1316811,-8.925584,-4.735731,1.145038,-4.251908,-1.259542
0.237026,-8.683769,-4.654328,-0.3816794,-0.4503817,4.480916
-0.007182605,-8.798691,-4.833893,-5.984733,-2.328244,-0.9923664
0.03351882,-8.645462,-4.704607,1.984733,-4.862596,-3.725191
0.5410896,-8.774749,-5.027823,-4.274809,-3.21374,1.89313
0.007182605,-8.595184,-4.730943,-11.98473,-7.89313,-5.534351
-0.08140286,-8.671799,-4.987122,-2.748092,-8.755725,-5.778626
0.03591302,-8.932767,-5.013458,4.656488,-13.07634,-4.022901
-0.3639187,-8.652645,-4.915296,-4.572519,-5.778626,-5.564886
-0.09337386,-8.772355,-5.11162,-2.816794,-3.0,-3.267176
0.02633622,-8.717288,-4.984728,-1.290076,-2.312977,-1.236641
0.2202666,-8.614338,-5.030218,6.335878,-5.076336,-0.6259542
-0.08858546,-8.734048,-5.035006,-3.854962,-1.038168,-4.648855
-0.1412579,-8.604761,-5.226542,-3.076336,0.8625955,-3.709924
0.04788403,-8.825027,-5.300763,2.694656,-5.755725,0.02290076
-0.1604115,-8.429984,-4.745308,-5.91603,-0.6946565,-3.068702
-0.09576806,-8.695741,-5.12838,-1.465649,-5.89313,-2.312977
-0.08858546,-8.640674,-5.061342,1.160305,-2.748092,1.007634
-0.3806781,-8.734048,-5.109226,-1.129771,-5.526718,-4.793893
0.2992752,-8.599973,-5.006276,4.022901,1.587786,3.358779
-0.1532289,-8.674192,-5.353435,5.465649,-3.854962,-1.229008
0.3854665,-8.710106,-5.044583,6.030534,-2.381679,-0.6793893
-0.5865794,-8.671799,-5.104438,0.3282443,-8.748092,-6.206107
0.4381389,-8.585608,-5.17387,-3.0,-2.435115,-3.068702
-0.7110779,-8.504205,-5.08289,-17.45038,-1.89313,-9.732824
0.2585738,-8.719683,-5.588067,0.8396947,-16.63359,-5.610687
0.1532289,-8.75799,-5.166687,9.496183,-10.22137,-2.687023
-0.01675941,-8.544906,-4.936844,-2.977099,-4.21374,-3.70229
-0.05027823,-8.616732,-5.070919,-2.259542,-1.389313,-3.839695
0.1316811,-8.559271,-5.05416,2.641221,5.198473,1.770992
-0.03591302,-8.588001,-5.274426,2.145038,7.687023,3.618321
-0.04309563,-8.74123,-5.207389,4.335878,5.351145,3.70229
-0.1699883,-8.616732,-5.006276,3.954198,1.938931,3.824427
-0.04309563,-8.643068,-4.908113,-1.732824,1.473282,-0.1755725
-0.01197101,-8.705317,-5.051765,-1.900763,0.6412213,-1.320611
-0.08379706,-8.580819,-5.042189,-3.419847,0.9694656,-2.061069
-0.1005565,-8.686164,-5.250484,0.6870229,-0.2061069,0.2137404
-0.04070143,-8.635885,-5.056554,2.908397,-0.3282443,2.587786
0.05746084,-8.645462,-5.066131,-2.145038,0.5801527,0.1832061
0.1149217,-8.695741,-5.216966,0.8396947,0.3206107,-0.3129771
0.007182605,-8.635885,-5.00867,2.70229,2.244275,0.7328244
-0.1149217,-8.724471,-5.080496,2.526718,-0.519084,-0.9694656
0.1244985,-8.762778,-5.090073,4.251908,-2.641221,-0.1450382
0.01915361,-8.645462,-5.073313,0.351145,2.816794,0.5954198
-0.1005565,-8.729259,-5.109226,0.7862596,1.885496,2.465649
-0.07422025,-8.808268,-5.08289,2.755725,0.6412213,0.8473283
0.03591302,-8.676587,-5.030218,-1.763359,0.03053435,0.1755725
-0.1867477,-8.542512,-5.097255,-5.80916,0.3129771,-1.419847
-0.06703765,-8.573636,-5.161899,-9.007633,-3.19084,-3.580153
-0.2106898,-8.499416,-5.3678,-5.274809,-6.603054,-1.908397
-0.557849,-8.480263,-5.485116,-8.519084,-18.56489,-5.183206
-0.3974375,-8.291121,-5.29358,-19.25191,-19.74046,-10.87786
-0.2896984,-8.429984,-5.750873,-14.78626,-22.0687,-7.778626
-0.08379706,-8.219295,-5.77242,-10.83206,-16.69466,-8.916031
-0.2466028,-8.037335,-5.81791,-4.038168,-9.305344,-8.259542
-0.2202666,-8.525752,-5.98311,12.41221,-3.694656,-1.793893
-0.7996634,-7.989451,-5.889736,-0.1221374,0.4122138,-8.343512
-0.7422025,-8.015787,-6.062119,0.2061069,-1.679389,-12.72519
0.3256114,-8.11395,-5.940014,4.977099,-2.083969,-10.1374
0.9720459,-7.958326,-5.56173,-5.564886,11.0,-3.770992
0.01436521,-8.367735,-6.318298,3.129771,8.259542,-1.068702
0.05746084,-8.149862,-5.386954,10.87023,-13.22901,-7.427481
0.4094085,-8.499416,-5.401319,13.65649,-12.64886,-5.61832
0.8499416,-8.312668,-5.157111,-2.007634,9.793893,1.29771
0.9720459,-8.336611,-5.341464,0.3206107,20.96183,10.74046
0.3687071,-8.305486,-5.470751,-3.465649,13.26718,6.351145
-0.04070143,-8.231265,-5.621585,-6.152672,0.2519084,-0.7709923
0.03112462,-8.63828,-5.554548,2.29771,-17.64122,-7.038168
0.5793968,-8.492233,-5.394136,5.251908,-8.908397,-4.78626
0.7182605,-8.544906,-5.159505,3.114504,-3.625954,-2.450382
0.6129156,-8.494628,-5.24809,10.70229,-4.954198,0.3816794
0.4572925,-8.681376,-5.379771,9.687023,-1.122137,1.389313
0.3687071,-8.674192,-4.510676,6.694656,-11.89313,-2.435115
1.276109,-8.707711,-4.671088,3.625954,-2.610687,-0.9312977
0.3064578,-8.628703,-4.029441,-7.167939,-3.038168,-0.7862596
0.04788403,-8.822633,-4.989516,7.610687,-4.022901,-2.717557
0.4668693,-8.652645,-5.099649,-5.969466,5.816794,3.099237
-0.830788,-8.870518,-5.00867,-0.129771,-6.748092,5.320611
-0.1723825,-8.827422,-4.807557,-1.137405,-5.89313,1.381679
0.1340753,-8.571242,-4.709395,-7.099236,0.9694656,1.870229
-0.2035071,-8.652645,-5.097255,-8.221375,7.40458,1.007634
-0.2011129,-8.719683,-5.300763,0.7099237,10.10687,4.366412
-0.2681506,-8.688558,-5.394136,3.290076,6.480916,2.70229
-0.04548983,-8.377312,-5.161899,-3.198473,11.61832,5.824428
-0.4405331,-8.599973,-5.197812,2.59542,7.030534,4.21374
-0.1244985,-8.702923,-5.398925,7.480916,1.59542,2.938931
-0.2873042,-8.463503,-5.025429,-1.129771,5.564886,5.679389
-0.2154782,-8.750807,-5.075707,-2.351145,2.755725,1.015267
-0.213084,-8.564059,-5.049371,1.175573,0.8167939,2.541985
-0.332794,-8.599973,-5.157111,-3.603053,2.290076,1.236641
-0.1268927,-8.820239,-5.018247,-7.358778,1.954198,-1.099237
-0.1867477,-8.504205,-4.869806,-3.916031,0.7022901,1.885496
-0.3878607,-8.607155,-5.130774,-1.793893,1.061069,0.3053435
-0.07182605,-8.760384,-5.216966,5.221374,0.4656488,1.007634
-0.05267244,-8.707711,-5.171476,1.519084,3.167939,3.19084
-0.5291186,-8.695741,-5.121197,-1.564886,2.885496,-2.038168
-0.1101333,-8.760384,-5.05416,5.580153,-0.5267176,2.427481
-0.4812346,-8.789114,-4.865018,2.160305,2.022901,0.5801527
-0.2920926,-8.631097,-4.972757,-1.458015,0.5114504,-1.167939
-0.2466028,-8.726865,-5.181053,5.389313,-1.198473,2.770992
-0.1939303,-8.90643,-5.185841,1.053435,-0.9083969,2.763359
-0.4884171,-8.602366,-5.125986,-0.6564885,2.267176,-0.9160305
-0.1843535,-8.815451,-4.905719,3.954198,-0.2213741,4.045802
-0.2394202,-8.542512,-4.707001,0.4885496,-3.549618,-3.473282
-0.3854665,-8.78672,-4.874595,-0.5267176,-0.2977099,-0.1145038
-0.3830723,-8.506598,-5.051765,0.6946565,0.2671756,-4.61832
-0.3184288,-9.052477,-5.465962,1.099237,-5.152672,-2.671756
-0.1412579,-8.492233,-4.575319,-5.412214,-0.6717557,-0.9389313
-0.2873042,-8.882488,-4.8722,-1.427481,5.572519,-0.4503817
-0.4453215,-8.954314,-4.915296,1.465649,6.473282,3.671756
-0.8643068,-8.631097,-4.766856,-2.389313,12.66412,1.801527
0.6009446,-9.045294,-4.711789,7.664122,17.14504,9.328244
-0.842759,-8.844181,-4.989516,2.419847,10.64122,8.748092
-0.1149217,-8.829816,-5.068525,3.40458,3.732824,5.572519
-0.4237737,-8.62152,-4.939238,-1.793893,2.961832,3.763359
-0.557849,-8.872911,-4.824317,-2.160305,-4.870229,-1.175573
-0.4237737,-8.724471,-4.613626,-4.870229,0.1603053,-0.870229
-0.2418144,-8.693346,-5.164293,-2.145038,10.87786,4.946565
-0.4716577,-8.461109,-4.67827,-10.45038,1.557252,-4.717557
0.1101333,-8.753201,-5.00867,-3.778626,2.358779,0.1603053
0.004788403,-8.614338,-5.00867,-11.52672,5.671756,-2.717557
0.05267244,-8.655039,-5.353435,-1.419847,8.068703,4.374046
0.1388637,-8.513782,-5.080496,-2.061069,7.564886,2.992366
0.002394202,-8.346188,-5.295974,-6.122138,8.671756,-1.687023
0.2777274,-8.477868,-5.444415,-1.526718,10.32061,1.625954
0.09816227,-8.465898,-5.331887,0.3053435,9.679389,4.534351
0.09097966,-8.506598,-5.197812,-0.6946565,5.908397,3.587786
0.1197101,-8.528147,-5.353435,1.900763,7.389313,4.091603
-0.03112462,-8.63828,-5.33907,2.129771,4.465649,4.450382
0.0,-8.614338,-5.231331,0.1068702,0.6641222,-0.5572519
0.2082956,-8.494628,-5.269638,1.954198,-0.3740458,0.7022901
0.1173159,-8.549694,-5.183447,4.022901,-2.229008,-1.114504
0.09097966,-8.607155,-5.152322,0.9007633,-2.763359,-0.4351145
0.09097966,-8.590396,-5.149928,1.938931,-2.29771,0.09923664
-0.05506664,-8.707711,-5.118803,2.557252,-5.167939,-0.4122138
0.09816227,-8.599973,-5.073313,1.641221,-4.900764,-1.80916
0.1460463,-8.676587,-5.149928,2.198473,-2.557252,0.01526718
-0.01675941,-8.576031,-5.090073,0.09160305,-1.687023,-2.0
0.03351882,-8.542512,-4.922479,-1.0,-0.5572519,0.2824428
-0.1221043,-8.707711,-5.094861,-1.572519,2.778626,0.01526718
-0.09576806,-8.640674,-4.958392,3.198473,0.4122138,2.534351
-0.1005565,-8.700529,-4.982334,2.572519,1.244275,0.389313
-0.3064578,-8.540117,-4.903325,-0.3358779,2.282443,-0.6870229
-0.05027823,-8.753201,-5.140351,-0.1068702,0.8091603,-1.885496
-0.05985504,-8.657434,-5.152322,3.732824,0.5648855,-0.2519084
-0.1316811,-8.674192,-4.879383,0.8931297,0.9541985,-0.6259542
-0.2537854,-8.820239,-4.948815,3.351145,-2.51145,2.198473
0.1747767,-8.772355,-4.829105,0.8396947,2.671756,1.206107
-0.08619126,-8.619126,-4.639963,-2.763359,8.465649,0.9541985
-0.1891419,-8.714894,-4.865018,-1.236641,6.412214,-0.5801527
-0.1173159,-8.925584,-5.003881,5.366412,0.9160305,1.770992
-0.07900865,-8.678981,-4.795586,-0.6717557,1.526718,0.259542
-0.1675941,-8.746018,-4.924873,-0.648855,-1.076336,-1.236641
-0.1891419,-8.767567,-4.733337,-1.763359,-3.374046,-3.396947
-0.01915361,-8.904037,-4.967968,-0.0610687,-3.21374,-1.274809
-0.02873042,-8.832211,-5.011064,-3.458015,-1.946565,-2.496183
0.1053449,-8.695741,-4.812346,-3.763359,1.664122,-0.01526718
-0.05985504,-8.767567,-4.924873,-0.4961832,0.2671756,-0.04580153
0.02154782,-8.76996,-4.939238,1.328244,1.083969,1.015267
0.002394202,-8.652645,-4.886566,-1.916031,1.244275,-0.1221374
0.1029507,-8.726865,-4.920084,-0.2824428,4.312977,0.6412213
0.05027823,-8.784326,-4.896142,0.2290076,3.167939,0.3587786
0.1364695,-8.753201,-4.939238,0.8625955,3.160305,0.259542
0.1963245,-8.599973,-4.831499,-1.435114,4.625954,2.137405
0.1795651,-8.738836,-4.819528,-0.04580153,3.877863,3.709924
0.1005565,-8.724471,-4.845864,0.7022901,1.343511,3.114504
-0.007182605,-8.825027,-4.766856,0.1145038,3.366412,2.366412
0.2011129,-8.777143,-4.903325,-1.969466,-1.053435,0.03816794
0.1412579,-8.693346,-4.817134,-3.717557,-4.709924,-3.48855
0.08140286,-8.602366,-4.96318,-2.564885,-9.526717,-5.030534
-0.2082956,-8.549694,-5.068525,-6.068702,-15.19084,-7.709924
-0.2513912,-8.552089,-5.386954,-6.801527,-20.99237,-2.969466
-0.5554548,-8.164227,-5.32231,-18.34351,-15.45038,-4.900764
-0.4788404,-8.853758,-5.576096,-5.389313,-15.58015,4.824428
-0.521936,-8.418014,-5.446809,-3.908397,-10.00763,3.061069
-0.7589619,-8.291121,-5.717354,-11.76336,-4.664122,-1.923664
-0.7350199,-8.42759,-5.640739,-3.007634,-0.1679389,0.4503817
-0.6655881,-8.310274,-5.631162,1.122137,7.709924,-0.5038168
-0.9624691,-8.42759,-5.734113,5.740458,10.9313,-2.824427
-1.242591,-8.288726,-5.925649,8.343512,4.709924,-2.221374
-0.260968,-8.331821,-5.506664,8.862596,8.282443,-8.259542
-0.4022259,-8.391677,-5.530606,7.496183,10.38168,-0.02290076
0.01197101,-8.35337,-5.216966,-3.396947,8.106871,-2.687023
0.06943185,-8.300697,-5.355829,-3.793893,9.740458,1.335878
0.3758897,-8.350976,-5.355829,-8.977099,13.77863,3.343511
0.320823,-8.470686,-5.425261,1.29771,9.511451,4.61832
0.5482722,-8.60955,-5.410896,2.259542,5.603054,3.51145
0.4165911,-8.772355,-5.319916,11.72519,2.236641,5.541985
0.4932055,-8.307879,-4.91769,-5.503817,7.053435,1.290076
0.2657564,-8.444349,-5.29358,0.6946565,5.251908,6.290076
0.320823,-8.765172,-5.224148,0.9007633,0.3358779,0.3282443
0.3734955,-8.293514,-5.104438,0.9694656,4.320611,1.152672
0.4548983,-8.492233,-5.307945,-6.29771,7.625954,-0.3358779
0.4022259,-8.645462,-5.267244,1.381679,8.503817,4.0
0.1891419,-8.508993,-5.051765,3.748092,7.137404,5.89313
0.09097966,-8.76996,-5.226542,2.419847,3.648855,5.48855
0.1005565,-8.463503,-5.018247,-1.687023,2.045802,1.381679
0.2274492,-8.611943,-5.260061,0.007633588,0.09160305,2.419847
0.1675941,-8.628703,-5.006276,-0.08396947,-1.839695,0.3816794
0.1340753,-8.75799,-5.29358,-0.6183206,-2.572519,0.2748091
0.1723825,-8.765172,-5.051765,-0.6412213,-4.015267,-2.221374
0.2753332,-8.690952,-5.003881,1.717557,-3.679389,-1.137405
-0.03830723,-9.006987,-4.948815,3.0,-7.61832,-7.664122
-0.07661445,-8.259995,-4.819528,-0.7557252,-5.587786,-6.625954
-0.05985504,-8.705317,-5.430049,-4.763359,-8.389313,-4.473282
0.01675941,-8.597578,-5.121197,0.3129771,-9.938931,-1.236641
-0.2035071,-8.487445,-5.157111,-2.419847,-8.450381,-1.366412
-0.3782839,-8.429984,-5.370194,0.2213741,-19.53435,-6.198473
-0.5003881,-8.616732,-5.257667,2.59542,-22.09924,-4.977099
-0.1604115,-8.540117,-5.212177,-2.206107,-14.58015,-4.022901
-0.272939,-8.750807,-5.226542,0.519084,-9.900764,2.564885
-0.7685388,-8.51857,-5.118803,-2.236641,-3.70229,6.732824
-0.9217676,-8.461109,-5.190629,-2.396947,-6.351145,7.030534
-0.8738836,-8.561666,-5.185841,2.389313,-3.870229,4.984733
-1.197101,-8.607155,-5.346252,3.473282,-1.641221,6.198473
-1.292869,-8.50181,-5.149928,5.022901,-3.78626,2.992366
-1.101333,-8.604761,-5.21936,-0.4732824,0.4656488,2.870229
-1.268927,-8.578424,-5.104438,-0.7938931,-2.854962,-2.725191
-1.053449,-8.544906,-5.073313,2.022901,1.053435,1.129771
-1.525106,-8.710106,-5.24809,1.541985,-0.0610687,-0.9389313
-1.055843,-8.683769,-5.231331,6.236641,-6.847328,-1.450382
-1.11091,-8.525752,-4.874595,-6.91603,0.6564885,-2.396947
-1.529895,-8.760384,-5.142745,2.29771,-3.59542,-1.229008
-1.407791,-8.659827,-4.975151,5.824428,-11.37405,-5.519084
-0.9648633,-8.657434,-4.855441,-2.358779,1.412214,-0.4427481
-1.558625,-8.655039,-4.99191,-6.687023,-0.1984733,-1.78626
-0.9457096,-8.5473,-5.090073,2.335878,-3.076336,-4.305344
-0.8882488,-8.762778,-5.11162,-2.603053,5.435114,-2.022901
-1.096544,-8.640674,-5.133168,0.1221374,0.8778625,-1.053435
-0.5434838,-8.437167,-4.683059,-3.748092,4.19084,-6.175572
-1.347936,-8.813056,-5.432444,6.648855,4.89313,0.2061069
-1.558625,-8.853758,-5.154716,6.748092,3.900763,-2.129771
-0.7733272,-8.722076,-4.845864,-4.725191,11.61069,4.923664
-0.8978256,-8.377312,-4.522647,1.061069,6.442748,-1.748092
-0.1005565,-8.78672,-4.912902,-4.167939,10.81679,-5.984733
-0.5099649,-8.710106,-5.116409,0.6183206,15.38931,3.0
-0.248997,-8.935161,-5.142745,2.015267,8.351145,-0.1603053
-0.08379706,-8.482656,-4.649539,-3.351145,13.62595,6.076336
-0.1699883,-8.523358,-5.066131,1.89313,11.19847,7.312977
-0.1651999,-8.750807,-4.924873,-0.2977099,17.25954,8.656488
-0.2657564,-8.762778,-4.891354,-0.6793893,18.96183,6.557252
-0.1867477,-8.681376,-4.996699,-2.442748,18.38168,6.076336
-0.3399766,-8.676587,-5.044583,-1.076336,11.75572,2.946565
-0.1795651,-8.796297,-5.236119,3.923664,8.572519,2.732824
-0.1244985,-8.477868,-4.924873,0.1984733,7.328244,1.290076
-0.04070143,-8.738836,-4.951209,2.709924,5.679389,1.419847
-0.002394202,-8.832211,-4.788404,2.435115,2.931298,1.236641
-0.213084,-8.762778,-4.826711,0.7938931,-0.6335878,-1.076336
0.1532289,-8.65025,-4.853047,-3.854962,1.610687,-1.664122
-0.002394202,-8.726865,-5.00867,0.778626,2.870229,0.6946565
0.1029507,-8.578424,-5.099649,-1.633588,4.08397,2.358779
-0.1699883,-8.846576,-5.0374,1.053435,2.801527,0.03053435
0.2202666,-8.626308,-4.984728,-2.129771,3.160305,-2.366412
0.3160346,-8.841787,-4.927267,1.862595,5.580153,-0.5877862
0.2178724,-8.75799,-4.833893,-0.7175572,7.633588,-1.480916
0.2825158,-8.839393,-4.742914,2.251908,3.038168,0.5877862
0.225055,-8.925584,-4.841076,3.709924,2.625954,0.4351145
0.3064578,-8.695741,-4.690241,4.419847,-2.664122,0.5267176
0.3351882,-9.018958,-4.726154,-0.1068702,1.725191,-4.717557
0.2896984,-8.734048,-4.714183,-5.473282,0.5038168,-3.580153
0.2992752,-8.880095,-4.898537,1.320611,-1.664122,-1.580153
0.2992752,-8.688558,-4.757279,-2.282443,-2.740458,-0.03816794
-0.4405331,-9.088389,-5.188235,6.503817,-27.64886,-11.42748
1.367089,-7.951144,-4.225766,-4.908397,5.022901,-1.80916
0.5027823,-9.07163,-4.975151,-6.267176,11.12214,3.068702
-0.1747767,-8.508993,-4.910508,-10.36641,2.450382,-1.145038
0.03830723,-8.590396,-5.00867,-5.022901,2.519084,3.030534
0.2657564,-8.408437,-5.358223,-14.0229,9.954199,3.21374
0.01197101,-8.604761,-5.355829,-12.42748,7.244275,1.549618
0.5171475,-8.566454,-5.288792,-4.70229,6.839694,4.412214
0.248997,-8.564059,-5.257667,0.0,11.67176,7.015267
0.1244985,-8.669404,-5.640739,3.480916,8.297709,3.152672
0.4836287,-7.97748,-5.571307,-0.480916,6.167939,1.862595
0.7541735,-8.159439,-5.513846,-8.129771,12.15267,-0.648855
0.8858546,-8.2169,-5.671864,-6.519084,18.28244,13.57252
0.2274492,-7.960721,-6.531382,12.61069,-20.62595,9.022901
0.4620809,-8.176199,-5.013458,-34.09924,-4.549618,-4.061069
0.9888053,-8.48984,-5.805939,-8.679389,5.610687,2.496183
-0.1197101,-7.61835,-5.485116,-11.9084,-2.923664,2.48855
-0.1939303,-9.950302,-6.394913,-8.984733,3.648855,-0.1832061
0.2322376,-7.73806,-5.267244,-0.2290076,1.374046,-3.740458
0.3567361,-8.686164,-5.98311,21.66412,1.206107,4.587786
0.1891419,-8.274361,-5.671864,22.47328,-1.183206,1.068702
0.4165911,-8.214506,-5.628768,22.67175,0.8625955,1.709924
1.072602,-7.706935,-5.420473,12.8626,12.03817,12.34351
0.04788403,-9.109938,-5.829881,27.26718,2.374046,7.503817
-0.3160346,-8.355764,-4.944026,24.9313,-9.396947,2.534351
0.4022259,-8.640674,-5.121197,9.656488,2.328244,9.183207
-0.5865794,-8.803479,-4.517859,-13.29771,-2.664122,4.045802
-1.005565,-8.37013,-4.699818,-36.00763,-5.59542,-22.60305
0.296881,-8.403648,-5.470751,-29.0458,-6.236641,-23.99237
0.2418144,-8.75799,-6.584054,8.175572,-14.60305,-10.48092
-0.004788403,-7.900866,-5.422867,-1.923664,-28.83206,-19.20611
0.3112462,-8.343793,-5.57849,2.167939,-25.18321,-16.77099
0.05506664,-8.623915,-5.33907,8.488549,-24.77863,-7.374046
-0.2274492,-8.451532,-5.097255,-5.465649,-26.90076,-21.13741
0.2418144,-8.59279,-5.760449,-4.564886,-30.91603,-24.83206
0.1484405,-8.528147,-5.650316,11.77863,-31.48092,-14.91603
0.2011129,-8.154651,-5.576096,18.74809,-39.46565,-17.26718
0.1675941,-8.061277,-5.6982,8.473283,-41.10687,-23.01527
0.8930372,-8.652645,-5.355829,-2.854962,-20.70229,-15.80153
0.09097966,-8.192958,-5.540183,-0.4503817,-9.114504,-2.671756
0.2825158,-8.655039,-5.499481,6.21374,-4.465649,0.09923664
0.3926491,-8.588001,-5.231331,10.17557,7.244275,9.801527
0.4764462,-8.607155,-5.070919,6.038168,26.32825,15.36641
0.5913678,-8.66701,-5.140351,-2.412214,48.75573,21.46565
0.2442086,-8.688558,-5.094861,4.08397,57.92366,27.29771
-0.3615245,-8.451532,-5.066131,15.64886,51.33588,24.16794
0.4070143,-8.750807,-3.881001,-31.01527,59.86259,10.84733
-0.1723825,-8.765172,-5.140351,-10.81679,48.39695,21.16031
-0.3782839,-8.887277,-5.403713,8.198473,27.35114,18.13741
0.308852,-8.750807,-4.865018,8.297709,22.19847,16.45038
-0.06943185,-8.865729,-4.697424,5.442748,17.58779,18.67939
-0.1292869,-8.60955,-4.31914,-7.114504,11.28244,7.748092
-0.03591302,-8.659827,-4.321534,-9.198473,9.114504,-4.931298
0.08858546,-9.366117,-4.915296,2.961832,8.427481,5.664122
-0.1723825,-8.63828,-4.570531,2.80916,-2.435115,-3.801527
0.4046201,-9.28232,-4.853047,3.10687,-14.53435,-6.19084
0.6033388,-8.784326,-4.22816,7.129771,-11.17557,-7.221374
0.5985504,-9.112331,-4.60405,-0.3969466,-2.076336,-3.870229
0.581791,-8.820239,-4.450821,2.091603,-9.694656,-4.503817
0.3280056,-8.892065,-4.39336,7.351145,-12.58015,-1.503817
0.3519476,-9.174581,-4.429273,2.923664,-12.91603,-3.183206
0.4812346,-8.896853,-4.460398,-2.007634,-13.46565,-5.557252
0.02394202,-8.947132,-4.074931,-0.7938931,-9.824428,-3.053435
-0.04070143,-9.040505,-4.213795,0.9160305,-14.03053,-4.748092
0.2537854,-9.179369,-4.489128,1.358779,-14.64122,-5.259542
0.01436521,-8.865729,-3.907337,-1.0,-11.8626,-4.312977
0.1484405,-9.033323,-4.486734,-2.770992,-11.38168,-4.473282
-0.07422025,-9.169792,-4.417302,6.221374,-14.18321,-3.908397
0.1843535,-9.07163,-4.333505,9.488549,-20.41985,-6.19084
-0.07661445,-8.935161,-4.129998,-6.38168,-12.81679,-9.572519
-0.08140286,-8.963891,-4.15394,-8.038168,-12.9084,-8.664123
-0.2561796,-9.045294,-4.254497,-2.48855,-11.45802,-2.832061
0.06224924,-8.805874,-4.453215,-2.580153,-6.10687,-3.778626
-0.2202666,-8.889671,-4.606444,0.961832,-11.43511,-3.099237
-0.3998317,-8.844181,-4.673482,3.198473,-15.96183,-6.290076
-0.2274492,-9.289502,-4.584896,-4.908397,-5.0,-0.2900764
-0.3902549,-8.743625,-4.493917,-2.274809,-0.7557252,1.21374
-0.5099649,-8.899248,-4.414908,-0.1068702,-4.251908,-3.381679
-0.1628057,-9.021352,-4.647145,2.427481,-4.167939,-1.015267
-0.3303998,-8.961497,-4.304775,0.389313,-0.3129771,1.51145
-0.237026,-9.023746,-4.570531,3.320611,0.06870229,-1.183206
-0.05267244,-9.030929,-4.458004,-2.59542,7.206107,1.053435
-0.2298434,-9.030929,-4.537012,-3.236641,7.923664,0.610687
-0.296881,-8.999804,-4.424485,0.2366412,4.08397,1.664122
-0.2825158,-8.880095,-4.264073,0.9083969,3.977099,-1.740458
-0.07661445,-9.095572,-4.532224,-2.679389,6.992366,0.4351145
-0.09337386,-8.801085,-4.537012,-6.229008,8.824428,0.1068702
-0.1771709,-8.808268,-4.735731,-3.427481,8.389313,0.6030535
-0.2561796,-8.872911,-4.795586,0.03816794,5.183206,0.9694656
-0.308852,-8.892065,-4.697424,-0.4198473,3.641221,-2.374046
0.02873042,-8.999804,-4.601655,0.3282443,6.366412,0.5419847
0.1221043,-9.093178,-4.55856,2.519084,7.282443,4.70229
-0.1915361,-8.930372,-4.589684,5.328244,3.389313,7.526718
0.1101333,-8.717288,-4.635174,0.09160305,-0.4580153,0.5038168
0.2059013,-8.901642,-4.390966,-1.503817,2.305344,-0.6183206
0.1604115,-8.78672,-4.517859,-1.900763,9.412213,3.038168
-0.04788403,-8.791509,-4.711789,-2.70229,1.0,-1.625954
0.5195417,-8.959103,-4.675876,3.053435,1.175573,1.145038
-0.1053449,-8.779537,-4.422091,-0.5343512,13.12214,5.335878
-0.1388637,-8.896853,-4.81474,3.48855,-4.572519,3.21374
0.2298434,-8.762778,-4.307169,-0.6412213,-2.954198,-0.3969466
0.3926491,-8.791509,-4.618415,-7.152672,9.21374,1.740458
0.1915361,-8.839393,-4.805163,-0.9236641,10.69466,5.259542
0.2777274,-8.863335,-4.766856,-7.534351,14.16794,6.587786
0.6584055,-8.588001,-4.836287,-7.038168,24.58015,9.992367
-0.3303998,-8.688558,-4.860229,-12.41221,12.99237,3.709924
0.5554548,-8.791509,-4.924873,-3.816794,16.06107,10.53435
