ax,ay,az,gx,gy,gz
-1.968034,-9.514558,-2.396596,-0.9465649,0.3206107,0.0
-2.001553,-9.55047,-2.281674,-0.03816794,0.3740458,-0.3053435
-2.030283,-9.514558,-2.303222,-1.038168,0.4885496,0.0
-1.951274,-9.488221,-2.331953,-1.671756,0.9694656,-0.9007633
-1.891419,-9.545682,-2.312799,-1.755725,1.053435,0.9083969
-2.109292,-9.509769,-2.243367,-4.931298,3.129771,-1.778626
-2.183512,-9.334992,-2.636016,-8.267176,4.022901,-9.007633
-1.51553,-9.586384,-2.434903,-7.435114,2.587786,-3.274809
-1.848324,-9.323022,-2.918532,-11.31298,8.251908,-4.694656
-1.642422,-9.382876,-3.066972,-12.15267,5.458015,-6.732824
-1.508347,-9.461885,-3.184288,-10.25191,4.053435,-4.236641
-1.240196,-9.244013,-3.426103,-9.465649,2.480916,0.2137404
-1.486799,-9.25359,-3.593697,-4.442748,-0.1832061,1.908397
-1.412579,-9.294291,-3.490746,1.709924,-2.763359,4.70229
-1.486799,-9.011775,-3.409343,0.5725191,-0.4045802,2.198473
-1.687912,-9.528923,-3.442862,4.877862,-0.9389313,0.2442748
-1.527501,-8.889671,-2.944868,-0.7328244,0.1068702,-0.1755725
-1.61848,-9.56723,-3.462016,7.793893,-1.381679,3.206107
-1.683124,-9.277532,-3.086126,-0.351145,-0.870229,1.221374
-1.616086,-9.255983,-3.203442,1.007634,0.6412213,0.04580153
-1.795651,-9.428367,-3.366248,4.70229,-1.877863,2.534351
-1.661576,-9.289502,-2.987964,-1.541985,0.6641222,-2.160305
-1.759738,-9.344569,-3.119645,-0.007633588,2.114504,-3.267176
-1.455675,-9.433155,-3.076549,3.267176,-0.2519084,-1.687023
-1.630451,-9.404425,-2.987964,2.862595,-0.2671756,-0.4503817
-1.345541,-9.306262,-2.731784,-1.625954,0.0610687,3.793893
-1.802834,-9.442732,-3.023877,-1.320611,0.007633588,4.847328
-1.865083,-9.205706,-2.750938,0.1374046,1.427481,-2.442748
-1.513135,-9.399636,-2.86586,-1.038168,1.396947,-1.908397
-1.632845,-9.397242,-3.107674,-1.351145,-0.8396947,-0.5496183
-1.714248,-9.49301,-3.028665,-0.1832061,-0.3740458,-0.08396947
-1.642422,-9.435549,-2.77488,-3.503817,1.503817,-0.351145
-1.649605,-9.378088,-3.078943,-1.465649,1.564886,-0.1832061
-1.644816,-9.404425,-3.028665,0.09923664,0.8167939,0.1374046
-1.549049,-9.378088,-2.978387,-0.7633588,0.9160305,-0.4656488
-1.640028,-9.423578,-3.102885,-0.1755725,0.1450382,0.02290076
-1.604115,-9.308656,-2.975993,1.145038,-0.1221374,0.351145
-1.644816,-9.41879,-2.978387,2.183206,-0.4427481,1.885496
-1.728614,-9.339781,-3.016694,-0.1526718,0.5267176,-0.2519084
-1.63524,-9.485827,-2.817975,1.137405,-0.3740458,0.9541985
-1.699883,-9.349358,-2.863465,-4.946565,1.870229,0.3969466
-1.675941,-9.399636,-3.167529,-1.900763,0.2366412,0.5725191
-1.745373,-9.507375,-3.050213,0.5267176,0.2290076,-0.3206107
-1.716643,-9.32781,-3.028665,-0.6870229,1.557252,-2.885496
-1.460463,-9.452309,-3.062184,-0.1450382,1.175573,-0.9847328
-1.563414,-9.392453,-2.928109,-0.7251908,-0.02290076,1.21374
-1.73819,-9.313444,-2.975993,-1.847328,0.5725191,0.03816794
-1.546654,-9.380483,-2.851494,3.335878,0.7328244,-3.70229
-1.448492,-8.978256,-2.44448,-6.114504,0.1145038,-0.1603053
-1.711854,-9.725247,-3.550601,0.3053435,-1.374046,1.709924
-1.505953,-9.382876,-2.918532,-0.740458,-1.717557,2.832061
-1.898602,-9.258378,-2.937685,2.061069,-1.282443,2.633588
-1.620875,-9.495404,-3.110068,-0.1984733,-3.251908,4.328244
-1.980005,-9.519346,-3.074155,3.259542,-1.10687,1.89313
-1.84593,-9.354146,-2.719813,1.335878,0.04580153,-0.01526718
-1.721431,-9.028535,-2.695871,0.4351145,-2.419847,1.236641
-1.905785,-9.557653,-3.071761,6.755725,-1.381679,1.343511
-1.989582,-9.267955,-2.53546,-2.427481,0.5419847,-0.9923664
-2.073379,-9.28232,-2.863465,-6.0,2.312977,-7.152672
-1.295263,-9.519346,-2.978387,5.099236,-3.29771,-0.8854962
-1.572991,-8.506598,-1.68073,3.259542,1.251908,-9.916031
-1.381454,-9.873688,-2.82037,8.274809,-2.122137,-3.847328
-1.546654,-9.890448,-2.504335,6.557252,0.351145,2.122137
-2.094927,-9.730036,-2.128445,16.09924,-2.564885,-2.419847
-1.295263,-9.562442,-2.015918,20.87786,-6.992366,-2.076336
-1.187524,-9.742006,-1.584962,12.38168,-4.068702,-1.122137
-1.484405,-9.816227,-1.127669,1.832061,-0.8549618,-1.022901
-1.211466,-9.524135,-1.163582,-2.51145,0.5801527,1.832061
-1.592144,-9.718064,-1.326388,-1.21374,0.8549618,2.908397
-1.675941,-9.801862,-1.489193,-1.435114,-0.3282443,0.8854962
-1.443704,-9.742006,-1.410185,-0.8167939,1.687023,-1.167939
-1.697489,-9.703699,-1.414973,-1.694656,1.557252,-0.1603053
-1.467646,-9.703699,-1.335965,-2.396947,1.442748,-0.01526718
-1.683124,-9.773131,-1.398214,-1.824428,0.6335878,0.3435115
-1.568202,-9.708488,-1.436521,-3.0,0.648855,0.5954198
-1.553837,-9.682152,-1.441309,-4.748092,1.351145,-0.1374046
-1.774103,-9.734824,-1.788469,-0.480916,0.4732824,0.01526718
-1.292869,-9.78989,-1.647211,-0.832061,-0.7175572,1.854962
-2.042254,-9.660604,-1.623269,-0.7480916,3.557252,-5.442748
-1.458069,-9.488221,-1.328782,1.290076,0.1679389,-4.274809
-0.8643068,-9.646238,-1.458069,-1.229008,-2.19084,3.717557
-1.999158,-9.849746,-1.580173,-0.7633588,0.5572519,0.09160305
-1.546654,-9.696517,-1.546654,1.625954,1.137405,-1.267176
-1.170765,-9.76116,-1.443704,2.137405,-0.480916,2.854962
-1.529895,-9.765948,-1.199495,-2.221374,-0.3435115,1.900763
-1.94888,-9.768343,-1.616086,3.412214,-0.03816794,-0.03816794
-0.9672575,-9.801862,-1.228225,1.412214,-0.4198473,2.099237
-2.025495,-9.583989,-1.326388,-3.068702,1.473282,0.8931297
-1.340753,-9.713276,-1.343147,-1.938931,1.496183,-0.389313
-1.687912,-9.643845,-1.343147,-5.717557,0.6183206,0.2824428
-1.611298,-9.775525,-1.551443,-2.603053,1.526718,-0.02290076
-1.525106,-9.665392,-1.467646,-4.427481,2.648855,0.3435115
-1.628057,-9.758766,-1.537078,0.351145,1.961832,-0.351145
-1.403002,-9.694122,-1.549049,-8.625955,2.862595,3.656489
-1.759738,-9.773131,-1.716643,-1.137405,1.572519,3.030534
-1.570596,-9.888053,-1.824382,-0.9694656,2.900763,2.206107
-1.601721,-9.718064,-1.84593,0.8396947,1.992366,3.320611
-1.817199,-9.600749,-1.704672,-5.183206,4.10687,1.725191
-1.750161,-9.720459,-1.841141,-2.679389,5.603054,1.770992
-1.721431,-9.653421,-2.006341,-1.358779,6.320611,1.206107
-1.764527,-9.409213,-1.958457,-1.40458,5.022901,2.19084
-1.94888,-9.904813,-1.580173,1.038168,-1.328244,3.122137
-1.879448,-9.196129,-1.683124,-5.496183,3.19084,3.183206
-1.848324,-9.643845,-2.051831,0.9236641,-1.198473,4.21374
-2.094927,-9.794679,-2.008735,1.664122,-0.1145038,-0.03816794
-2.173935,-9.765948,-2.03986,11.68702,-3.183206,0.05343511
-1.912967,-9.615114,-1.429338,2.229008,-1.648855,-0.09923664
-1.96564,-9.749189,-1.687912,4.045802,-0.8091603,1.206107
-2.135628,-9.548077,-1.68073,-0.8473283,0.01526718,-0.1755725
-1.944092,-9.631873,-1.558625,-0.6641222,-0.3816794,-1.503817
-2.035071,-9.516952,-1.549049,-1.10687,-1.80916,-1.816794
-1.917756,-9.615114,-1.393425,-1.152672,-0.1450382,-1.59542
-1.881843,-9.629479,-1.537078,-1.496183,1.007634,-0.2824428
-2.027889,-9.655815,-1.493982,-3.198473,0.8396947,0.2137404
-2.008735,-9.586384,-1.616086,-8.603053,0.4732824,-1.221374
-2.044648,-9.68694,-1.817199,-4.977099,0.7328244,-2.068702
-1.92015,-9.722853,-1.812411,-1.610687,-0.7328244,-2.564885
-1.798046,-9.562442,-1.84593,-2.992366,0.7557252,-2.267176
-1.764527,-9.651027,-2.03986,4.801527,-1.167939,-0.4732824
-1.642422,-9.617508,-1.666364,2.801527,-1.694656,2.587786
-1.932121,-9.557653,-1.78368,-7.114504,-0.2290076,3.015267
-1.838747,-9.404425,-1.666364,-14.74046,0.09923664,-1.832061
-2.334347,-9.504981,-2.255338,0.06870229,-6.175572,-5.984733
-1.96564,-9.780313,-1.908179,-1.381679,-20.07634,-1.717557
-1.158794,-9.5385,-1.951274,3.236641,-5.961832,-2.335878
-1.807622,-9.598354,-1.927332,-0.259542,-1.931298,4.022901
-2.403779,-9.73243,-1.84593,1.961832,-6.221374,4.122138
-1.872266,-9.500193,-1.836353,0.6030535,-0.648855,0.6183206
-1.996764,-9.65821,-1.853112,0.0,0.9083969,-0.4427481
-1.869872,-9.639056,-1.855506,0.7938931,1.175573,-0.09923664
-2.128445,-9.665392,-1.798046,0.740458,2.29771,-1.679389
-1.810017,-9.648633,-1.637634,0.6412213,-0.4732824,1.908397
-1.877054,-9.483433,-1.575385,-1.610687,-1.389313,2.236641
-2.142811,-9.679757,-1.716643,-0.6030535,0.3435115,-0.7709923
-2.169147,-9.643845,-1.956063,1.557252,2.21374,-3.030534
-1.549049,-9.634268,-1.534683,-5.458015,1.633588,-0.4580153
-2.123657,-9.598354,-1.810017,-11.03817,0.648855,1.618321
-1.697489,-9.502586,-2.13084,-12.49618,2.374046,1.480916
-1.90339,-9.619903,-2.217031,-3.908397,-1.740458,7.633588
-2.255338,-9.617508,-2.317587,-11.05344,2.885496,7.938931
-2.439692,-9.277532,-2.408567,-5.641222,4.656488,4.40458
-2.403779,-9.442732,-2.645593,-0.08396947,1.458015,2.450382
-2.437297,-9.416395,-2.504335,2.900763,-0.4122138,0.259542
-2.317587,-9.385271,-2.432509,2.145038,2.183206,0.2977099
-2.475605,-9.414001,-2.492364,2.259542,1.755725,1.145038
-2.375048,-9.483433,-2.365471,-0.351145,0.3282443,1.0
-2.327164,-9.425972,-2.47321,-0.2061069,0.2900764,1.221374
-2.408567,-9.382876,-2.391808,0.8931297,0.8549618,1.351145
-2.391808,-9.44752,-2.408567,0.9236641,1.389313,1.251908
-2.454057,-9.528923,-2.470816,4.091603,0.4580153,0.3664122
-2.628834,-9.461885,-2.286463,3.778626,-0.5877862,0.0610687
-2.487576,-9.490616,-2.200271,4.312977,0.2213741,-2.030534
-2.183512,-9.449914,-2.231396,2.923664,-1.007634,0.09923664
-3.026271,-9.428367,-1.977611,9.824428,7.198473,-7.145038
-2.195483,-9.97185,-2.097321,5.633588,4.007634,-5.450382
-1.910573,-9.244013,-1.529895,-2.709924,5.206107,-2.870229
-2.224213,-9.579201,-1.987187,1.091603,7.129771,-3.862595
-2.087744,-9.5385,-2.056619,4.274809,5.08397,-5.664122
-1.896208,-9.586384,-1.644816,1.51145,4.0,-5.816794
-1.70946,-9.605537,-1.812411,-2.053435,2.007634,-2.900763
-1.671153,-9.672575,-2.078167,0.6870229,-1.847328,1.083969
-1.836353,-9.653421,-1.742979,-0.3816794,-0.2748091,1.717557
-1.810017,-9.564836,-1.881843,-1.793893,0.6335878,2.129771
-1.900996,-9.684546,-1.82917,-1.244275,0.5572519,1.48855
-1.96564,-9.643845,-1.855506,-1.160305,0.7557252,0.6259542
-1.908179,-9.639056,-1.951274,0.6183206,0.02290076,-0.5419847
-1.917756,-9.380483,-1.762132,-0.6870229,0.6564885,-0.2442748
-1.812411,-9.710882,-1.879448,0.259542,0.259542,-0.03053435
-1.869872,-9.648633,-1.908179,-0.2442748,-0.3664122,1.10687
-1.953669,-9.643845,-1.805228,0.519084,0.04580153,0.4045802
-1.900996,-9.61272,-1.87466,0.7099237,-0.2290076,1.389313
-1.951274,-9.545682,-1.80044,-0.05343511,0.2442748,0.3969466
-1.877054,-9.572019,-1.84593,-0.4351145,0.4274809,0.5114504
-1.927332,-9.643845,-1.886631,-0.5572519,0.03816794,-0.5496183
-1.917756,-9.662998,-1.78368,1.969466,0.6259542,0.8778625
-1.814805,-9.739613,-1.984793,-2.541985,0.1221374,-0.01526718
-2.104503,-9.725247,-1.946486,-1.381679,-2.175573,0.778626
-1.987187,-9.55047,-1.762132,-1.40458,-3.183206,0.9465649
-1.716643,-9.603143,-1.841141,-3.648855,-3.847328,5.167939
-1.991976,-9.497798,-1.728614,-6.053435,-4.954198,7.709924
-2.394202,-9.557653,-2.121263,-2.618321,-3.366412,7.053435
-2.389413,-9.469068,-1.932121,-6.923664,1.954198,4.770992
-2.554613,-9.409213,-2.190695,-3.954198,1.015267,-0.2137404
-2.348712,-9.524135,-2.221819,-0.961832,0.519084,-2.038168
-2.430115,-9.502586,-2.257732,-0.5954198,0.03816794,-1.221374
-2.264915,-9.528923,-2.171541,-0.06870229,0.3053435,-0.519084
-2.284068,-9.52174,-2.195483,0.3206107,0.2748091,0.6641222
-2.451663,-9.509769,-2.212242,2.251908,-0.4580153,-0.9923664
-2.329558,-9.488221,-1.991976,2.396947,0.05343511,-1.114504
-2.360683,-9.433155,-1.915361,1.160305,-2.076336,0.259542
-2.379837,-9.488221,-1.857901,-2.885496,-6.160306,1.351145
-2.346318,-9.536105,-2.066196,-0.7099237,-4.038168,0.351145
-2.952051,-9.512163,-2.118869,1.007634,-13.51908,-0.6259542
-2.346318,-9.605537,-2.087744,-1.129771,-19.90076,-3.145038
-1.970428,-9.502586,-1.92015,-4.732824,-13.96183,-5.38168
-2.607286,-9.648633,-2.348712,13.26718,-15.47328,-10.53435
-2.082955,-9.540894,-1.462857,8.068703,-13.08397,-8.580153
-2.762909,-9.490616,-1.244985,5.480916,-13.78626,-12.51908
-2.008735,-9.835381,-1.175553,-1.78626,-8.068703,-12.58015
-1.628057,-9.809045,-1.132457,2.732824,-9.885496,-4.0
-1.525106,-9.780313,-1.233014,4.725191,-5.221374,-3.328244
-1.400608,-9.615114,-1.103727,2.519084,-0.08396947,2.244275
-1.419762,-9.586384,-0.9959879,0.740458,5.977099,6.633588
-1.362301,-9.452309,-0.629675,-5.656488,2.450382,4.969466
-2.025495,-9.294291,-0.7565677,-8.977099,-0.3053435,7.10687
-1.99437,-9.672575,-1.156399,-8.503817,0.3664122,-0.03816794
-2.181118,-9.919178,-1.455675,-8.824428,4.847328,-2.068702
-1.951274,-9.749189,-1.68073,-13.0458,6.70229,-1.992366
-2.367866,-9.773131,-1.733402,-9.297709,5.641222,-1.015267
-1.972822,-9.677363,-1.750161,-4.152672,6.717557,-5.114504
-1.599327,-9.56723,-1.936909,-4.335878,3.29771,-5.21374
-1.628057,-9.67018,-2.111686,-2.21374,0.3358779,-1.320611
-1.924938,-9.871294,-2.157176,1.21374,2.328244,-7.427481
-1.312023,-9.263166,-1.960851,3.885496,-1.259542,4.534351
-1.623269,-9.718064,-1.862689,4.022901,1.389313,10.46565
-2.106898,-9.706094,-1.90339,-0.740458,0.5343512,5.717557
-2.008735,-9.742006,-1.910573,-4.366412,-0.6793893,0.8931297
-1.958457,-9.43076,-1.944092,-4.259542,0.06870229,-0.6946565
-2.13084,-9.78989,-1.996764,-3.374046,2.679389,-4.816794
-1.493982,-9.478644,-2.319981,2.068702,-2.633588,-0.03816794
-1.848324,-9.713276,-2.126051,1.10687,1.717557,1.129771
-2.066196,-9.651027,-2.080561,3.083969,2.236641,-1.198473
-1.587356,-9.579201,-1.723825,-0.3358779,0.6641222,1.854962
-1.697489,-9.572019,-2.042254,-0.007633588,0.1603053,4.564886
-1.999158,-9.67018,-2.169147,4.923664,-3.564885,4.717557
-2.090138,-9.701305,-1.63524,0.6259542,1.038168,0.9236641
-2.116474,-9.457097,-1.747767,-6.854962,2.931298,-3.435115
-1.877054,-9.459491,-2.035071,-5.48855,1.053435,-2.259542
-1.912967,-9.605537,-2.094927,-1.198473,1.961832,-2.175573
-1.750161,-9.595961,-2.054225,0.5038168,-0.7938931,0.007633588
-1.714248,-9.574412,-2.154782,-0.8854962,0.832061,0.2061069
-1.824382,-9.603143,-2.121263,-1.984733,0.1832061,1.396947
-1.893814,-9.600749,-2.240973,-1.70229,1.412214,-1.778626
-1.96564,-9.919178,-2.750938,9.839695,-3.0,-4.664122
-1.587356,-9.756371,-1.853112,3.717557,3.381679,4.389313
-1.750161,-9.397242,-1.853112,5.862596,5.10687,4.938931
-1.929727,-9.746795,-1.817199,-2.0,-0.5419847,-0.6564885
-1.769315,-9.639056,-1.889025,-5.129771,-2.145038,0.8091603
-2.094927,-9.691729,-2.013524,-3.503817,-0.4580153,-0.8244275
-2.087744,-9.607931,-1.980005,-3.419847,1.229008,-2.854962
-1.721431,-9.588778,-2.03986,-0.740458,2.053435,-1.381679
-1.872266,-9.624691,-1.984793,-2.312977,1.870229,-0.832061
-1.757344,-9.564836,-2.161964,-3.816794,1.900763,-2.10687
-1.649605,-9.643845,-2.20506,-4.389313,1.122137,-1.816794
-1.843535,-9.593566,-2.360683,-0.3053435,-0.8396947,2.167939
-1.833959,-9.581595,-2.25055,2.732824,2.717557,2.48855
-1.539472,-9.55047,-2.20506,3.694656,-2.007634,4.045802
-2.032677,-9.481039,-2.217031,3.236641,-1.938931,3.938931
-2.171541,-9.607931,-2.020706,3.717557,2.755725,1.70229
-1.388637,-10.04368,-2.327164,-0.2137404,-0.7175572,-3.427481
-2.190695,-9.52174,-2.257732,-2.954198,-1.015267,-0.5038168
-1.905785,-9.682152,-2.078167,0.5648855,2.274809,-1.450382
-1.728614,-9.572019,-2.224213,-0.3206107,1.015267,-0.6259542
-1.668759,-9.543288,-2.200271,-1.083969,3.916031,-0.2366412
-1.774103,-9.593566,-1.891419,-1.145038,3.679389,0.9236641
-1.620875,-9.406818,-2.011129,0.01526718,1.625954,5.40458
-1.66397,-9.574412,-1.970428,6.122138,8.061069,5.969466
-1.941698,-9.67018,-1.99437,2.732824,12.75572,5.282443
-1.769315,-9.19134,-1.752556,0.519084,15.41985,-0.1832061
-2.138022,-9.490616,-1.778892,-2.259542,18.8855,-1.068702
-2.425326,-9.722853,-2.176329,0.03053435,14.71756,-0.2900764
-1.613692,-9.478644,-2.145205,-4.114504,7.022901,0.5114504
-1.66397,-9.718064,-2.209848,-5.580153,9.503817,4.664122
-2.1883,-9.490616,-2.171541,-4.38168,4.038168,-2.076336
-2.030283,-9.260772,-2.221819,-15.0687,-2.198473,-5.015267
-1.180341,-9.469068,-2.566584,-11.96947,-1.0,-0.5343512
-1.714248,-9.531317,-2.856283,-14.16794,0.9923664,-0.2442748
-1.541866,-9.569624,-3.229778,-7.312977,3.931298,4.10687
-2.011129,-9.222465,-3.428497,-6.358778,10.53435,1.381679
-2.128445,-9.275137,-3.37343,0.351145,5.740458,-1.572519
-1.376666,-9.409213,-3.215413,-0.7328244,-0.4274809,-1.351145
-1.810017,-9.244013,-3.136404,-0.8396947,-0.5648855,-1.328244
-1.644816,-9.260772,-3.229778,-0.9541985,0.4351145,-1.496183
-1.668759,-9.313444,-3.244143,-4.076336,2.580153,-2.847328
-1.659182,-9.301474,-3.361459,-3.877863,2.229008,-5.38168
-1.328782,-9.313444,-3.308787,-2.007634,2.801527,-4.923664
-1.429338,-9.315839,-3.488352,-2.732824,2.572519,-6.206107
-1.271321,-9.291897,-3.325546,-0.5954198,1.801527,-6.572519
-1.055843,-9.325416,-3.473987,0.3740458,2.396947,-2.916031
-1.132457,-9.301474,-3.387795,-0.6030535,1.854962,-2.977099
-1.106121,-9.330204,-3.371036,-0.5572519,1.305344,-1.664122
-0.9959879,-9.342175,-3.514688,-1.687023,1.328244,-1.267176
-1.060631,-9.28232,-3.399766,-1.977099,0.8244275,-0.8473283
-0.9481038,-9.370906,-3.426103,-2.671756,0.8625955,1.061069
-1.070208,-9.279925,-3.483563,-2.137405,-0.09160305,1.59542
-0.9911995,-9.272743,-3.61285,-2.076336,-0.5648855,3.267176
-1.074997,-9.44752,-3.801992,5.732824,-2.770992,6.282443
-1.21386,-9.332599,-3.380613,-0.7557252,-2.251908,5.641222
-1.23062,-9.313444,-3.524265,-2.564885,2.748092,6.847328
-1.63524,-9.346964,-3.701436,-2.770992,5.343512,6.145038
-1.546654,-9.275137,-3.878607,-2.648855,5.412214,3.900763
-1.537078,-9.277532,-3.734955,-0.9007633,-0.1221374,1.198473
-1.66397,-9.200917,-3.552995,0.3816794,0.2442748,-1.10687
-1.47004,-9.215282,-3.667917,0.4580153,0.8167939,0.6030535
-1.721431,-9.153033,-3.756502,0.832061,-1.641221,-4.328244
-1.594538,-9.330204,-3.545813,5.396946,-3.587786,-5.259542
-1.45328,-9.241618,-3.701436,2.328244,-0.1908397,-8.816793
-1.063026,-9.370906,-3.469198,2.152672,0.2061069,-3.603053
-1.151611,-9.306262,-3.378219,4.358778,0.4885496,-1.450382
-1.309628,-9.296685,-3.222595,0.351145,0.3740458,-2.129771
-0.9576807,-9.217676,-3.220201,1.534351,-0.4274809,-0.1755725
-1.158794,-9.483433,-3.177106,-0.2748091,0.4885496,1.137405
-0.9888053,-9.40203,-3.136404,-1.992366,5.328244,-0.3587786
-0.7134721,-9.212888,-3.174711,-12.40458,17.63359,7.587786
-1.072602,-9.588778,-4.139575,-9.702291,20.80916,10.21374
-1.841141,-9.210494,-3.854665,-2.557252,1.580153,-1.328244
-1.340753,-9.244013,-3.473987,-0.648855,-3.931298,-6.954198
-0.8475474,-9.148245,-3.423708,-5.740458,-1.229008,-6.541985
-1.300052,-9.423578,-4.271256,8.679389,-7.91603,-1.801527
-0.7613561,-9.351752,-3.531447,-3.496183,-4.519084,-2.343511
-0.9696517,-9.085996,-3.708618,-4.305344,2.0,3.641221
-1.187524,-9.366117,-3.785233,1.022901,2.725191,5.328244
-1.228225,-9.232041,-3.713407,2.236641,-2.931298,0.6870229
-1.031901,-9.078813,-3.416526,2.167939,-3.78626,1.221374
-1.070208,-9.301474,-3.694253,2.366412,0.7862596,2.633588
-1.388637,-9.289502,-3.605668,1.030534,-0.1832061,0.5343512
-1.194707,-9.255983,-3.397372,0.351145,-0.6717557,-0.3358779
-1.163582,-9.248801,-3.550601,-1.274809,0.4274809,0.6335878
-1.388637,-9.375694,-3.600879,-0.2137404,0.8549618,-1.824428
-1.118092,-9.172187,-3.689465,3.145038,-2.48855,-2.236641
-0.8643068,-9.220071,-3.488352,2.015267,-0.6946565,1.160305
-1.264138,-9.251195,-3.462016,-0.01526718,0.519084,1.51145
-1.16837,-9.344569,-3.454833,3.870229,-1.961832,1.061069
-1.182736,-9.363723,-3.232172,7.641222,-3.70229,4.572519
-1.331176,-9.318233,-3.201048,2.832061,-0.5267176,2.48855
-1.328782,-9.390059,-3.145981,3.068702,-0.519084,2.435115
-1.335965,-9.323022,-3.131616,0.9312977,1.038168,3.984733
-1.508347,-9.366117,-3.119645,-0.4045802,4.114504,3.351145
-1.484405,-9.349358,-3.009511,-2.839695,3.526718,1.59542
-1.632845,-9.272743,-3.232172,-4.580153,3.40458,0.1450382
-1.572991,-9.334992,-3.277662,-3.061069,0.129771,0.8015267
-1.479617,-9.334992,-3.335123,-1.656489,-0.7633588,-0.6259542
-1.58975,-9.272743,-3.251326,-1.885496,-0.3816794,-0.4656488
-1.522712,-9.356541,-3.378219,-0.6030535,0.5801527,0.007633588
-1.537078,-9.203311,-3.280056,-1.526718,1.137405,-1.78626
-1.460463,-9.275137,-3.289633,-1.557252,1.0,-0.870229
-1.438915,-9.263166,-3.28245,-1.793893,1.251908,-0.6030535
-1.438915,-9.306262,-3.347094,0.1984733,0.9083969,-0.4274809
-1.414973,-9.215282,-3.28245,-0.7862596,0.7480916,-1.030534
-1.35033,-9.263166,-3.234566,-0.4198473,0.4961832,-1.114504
-1.383849,-9.409213,-3.342306,-0.04580153,-0.3969466,-0.07633588
-1.477222,-9.385271,-3.339911,-0.3053435,0.07633588,-0.5038168
-1.405396,-9.378088,-3.270479,-0.4045802,0.7480916,-0.2290076
-1.472434,-9.330204,-3.303998,0.06870229,0.351145,-0.8091603
-1.357512,-9.299079,-3.1795,-1.343511,1.091603,0.389313
-1.508347,-9.330204,-3.201048,-1.389313,1.282443,-0.07633588
-1.47004,-9.387665,-3.311181,0.2442748,0.0610687,0.1145038
-1.374272,-9.318233,-3.29921,-0.4351145,0.1755725,0.1374046
-1.446098,-9.356541,-3.320758,-1.145038,1.282443,-0.09160305
-1.345541,-9.301474,-3.339911,-1.312977,0.4885496,-0.4351145
-1.450886,-9.366117,-3.275268,-0.6870229,0.4045802,0.04580153
-1.400608,-9.375694,-3.32794,-1.076336,0.8549618,-0.0610687
-1.369483,-9.277532,-3.339911,-1.671756,0.8549618,-0.351145
-1.393425,-9.363723,-3.359065,-3.618321,1.664122,0.4274809
-1.407791,-9.270349,-3.414132,-2.740458,1.10687,-0.01526718
-1.42455,-9.380483,-3.514688,-0.3816794,0.1679389,-0.05343511
-1.383849,-9.270349,-3.49314,0.7175572,0.0610687,-1.183206
-1.247379,-9.246407,-3.394978,-1.229008,1.160305,0.6030535
-1.388637,-9.289502,-3.505111,-1.29771,1.816794,0.2900764
-1.374272,-9.255983,-3.454833,-0.2213741,0.2748091,-0.4580153
-1.314417,-9.179369,-3.457227,0.4580153,0.2137404,-0.1221374
-1.352724,-9.239224,-3.29921,-1.053435,1.091603,0.3282443
-1.247379,-9.423578,-3.49314,-2.29771,2.442748,3.78626
-1.702277,-9.248801,-3.660734,0.6335878,-1.480916,-2.427481
-1.228225,-9.332599,-3.404555,0.4351145,0.007633588,-2.251908
-1.42455,-9.248801,-3.354277,0.8396947,-0.1374046,-1.396947
-1.319205,-9.272743,-3.380613,4.244275,-3.648855,-2.465649
-1.266533,-9.411607,-3.265691,2.717557,-0.5572519,-0.7633588
-1.082179,-9.629479,-3.203442,8.839695,-2.251908,0.1679389
-1.103727,-9.334992,-3.177106,0.480916,2.801527,-0.8931297
-1.163582,-9.239224,-2.947262,0.3053435,2.984733,0.1221374
-1.175553,-9.40203,-3.165135,-0.5572519,1.244275,-1.374046
-1.170765,-9.342175,-3.011906,-0.6717557,0.2748091,0.1679389
-1.223437,-9.440337,-3.062184,-4.679389,1.687023,-1.328244
-1.11091,-9.490616,-3.39019,-1.198473,0.4580153,0.3358779
-1.273715,-9.44752,-3.292027,1.145038,-0.2442748,-0.2137404
-1.113304,-9.469068,-3.119645,0.07633588,-0.1603053,0.6030535
-1.197101,-9.3733,-3.189077,-1.236641,0.3282443,-0.778626
-1.151611,-9.394848,-3.25372,-0.1603053,0.2824428,-1.122137
-1.043872,-9.399636,-3.232172,-3.625954,1.717557,-0.1679389
-1.137246,-9.291897,-3.098097,-0.7938931,0.4351145,-0.5419847
-1.144428,-9.442732,-3.272874,-1.152672,0.8244275,0.09923664
-1.16837,-9.387665,-3.251326,1.473282,-0.3206107,0.0
-1.149217,-9.387665,-3.306392,0.5038168,0.259542,0.7099237
-1.115698,-9.414001,-3.169923,-0.6564885,0.4045802,1.160305
-1.130063,-9.344569,-3.13401,-0.5343512,0.480916,0.3053435
-1.218649,-9.366117,-3.337517,1.687023,-0.2519084,0.4122138
-1.216254,-9.507375,-3.189077,2.847328,0.007633588,-0.1221374
-1.113304,-9.440337,-3.095703,2.709924,-0.4427481,0.0
-1.16837,-9.454702,-3.055001,1.358779,-0.2824428,-0.02290076
-1.134852,-9.385271,-2.94008,-0.2977099,0.01526718,-0.0610687
-1.125275,-9.406818,-2.975993,-2.381679,0.778626,0.1679389
-1.127669,-9.449914,-3.069367,-2.938931,1.450382,-0.7251908
-1.077391,-9.40203,-3.062184,-4.458015,2.122137,1.473282
-1.192312,-9.385271,-3.306392,-5.053435,2.755725,0.4274809
-1.027112,-9.342175,-3.110068,-1.78626,2.763359,1.129771
-1.055843,-9.272743,-3.193865,-1.877863,4.801527,1.396947
-1.249773,-9.368511,-3.265691,1.954198,5.267176,1.030534
-1.16837,-9.425972,-3.064578,-1.282443,2.80916,0.0610687
-1.108515,-9.43076,-3.203442,-3.328244,1.145038,0.6183206
-1.225831,-9.380483,-3.383007,-4.068702,0.1526718,0.04580153
-1.242591,-9.394848,-3.32794,-1.870229,1.0,-1.320611
-1.113304,-9.325416,-3.512294,3.389313,-2.007634,-0.7862596
-0.8690952,-9.461885,-3.002329,-3.442748,0.7175572,-0.5648855
-1.00317,-9.308656,-3.256114,-0.7251908,2.045802,1.442748
-1.292869,-9.595961,-3.459621,1.51145,-0.5114504,-1.694656
-0.9217676,-9.368511,-3.313575,-0.648855,0.05343511,-0.3587786
-1.223437,-9.351752,-3.320758,-0.3664122,0.1526718,0.6870229
-0.9528923,-9.356541,-3.392584,-0.6946565,2.160305,1.80916
-0.8499416,-9.334992,-3.136404,-6.625954,4.374046,2.992366
-1.300052,-9.244013,-3.303998,-6.366412,4.580153,-0.6412213
-1.010353,-9.239224,-3.507505,-11.74046,7.725191,-9.274809
-0.7685388,-9.083601,-4.010288,-4.732824,4.977099,-5.534351
-0.7445967,-9.16261,-3.82354,-0.8854962,4.603054,-0.5877862
-0.6895301,-9.13388,-3.469198,-4.801527,1.824428,-0.8549618
-0.866701,-9.234436,-3.651158,-10.26718,2.145038,-1.312977
-0.9696517,-9.124303,-3.89776,-14.23664,6.061069,-13.67939
-0.7637503,-9.050082,-4.204218,-4.473282,-4.465649,-18.55725
0.5410896,-9.109938,-5.188235,6.312977,-18.0229,-7.045802
0.08619126,-8.925584,-3.632004,8.38168,-15.09924,-0.4122138
-0.04070143,-9.033323,-3.900155,4.564886,-5.61832,6.480916
-0.332794,-9.054871,-4.048595,2.854962,-1.51145,7.458015
-0.5554548,-9.212888,-3.6751,3.694656,0.03816794,8.328244
-0.6991069,-9.114726,-3.440468,-1.885496,6.312977,7.206107
-0.6967127,-9.200917,-3.948039,-0.3664122,10.74809,10.38931
-1.115698,-9.188946,-3.871424,4.022901,8.152672,5.473282
-1.549049,-9.272743,-3.632004,4.08397,2.793893,-6.435114
-0.9337386,-9.349358,-3.627216,2.938931,2.045802,-12.23664
-1.086968,-9.461885,-3.813963,10.01527,-2.557252,-15.92366
-0.2394202,-9.394848,-3.342306,0.2671756,-2.40458,-15.8626
0.4381389,-9.107543,-3.335123,0.4122138,0.1221374,-7.496183
0.2035071,-9.074024,-3.529053,-2.091603,1.519084,-1.839695
0.1077391,-9.153033,-3.426103,-1.427481,-0.480916,3.931298
0.08858546,-9.208099,-3.351882,-2.618321,-1.251908,8.198473
-0.1077391,-9.153033,-3.359065,-4.862596,-2.221374,13.42748
-0.1053449,-9.267955,-3.873818,-4.29771,0.648855,14.70229
-0.3423708,-8.836999,-3.864242,-10.40458,0.06870229,21.54962
-0.9217676,-9.136273,-3.689465,-5.519084,-2.366412,24.18321
-1.987187,-9.064447,-4.19943,-3.503817,-1.473282,10.00763
-1.838747,-9.095572,-4.220978,-7.839694,0.6641222,3.122137
-1.628057,-8.99741,-4.146757,-6.671756,3.572519,-4.374046
-1.42455,-8.913613,-4.36463,-0.2290076,4.312977,-4.175572
-1.448492,-9.045294,-4.27365,-0.4732824,2.763359,-6.687023
-1.376666,-8.875306,-4.27365,0.7251908,4.251908,-8.465649
-1.067814,-8.961497,-4.185065,1.137405,3.534351,-7.030534
-0.8858546,-8.846576,-4.223372,0.04580153,0.2366412,-8.862596
-1.149217,-9.411607,-4.106056,4.717557,-3.763359,-7.40458
-0.5386954,-8.99741,-3.852271,-3.854962,-2.824427,-5.519084
-0.7206547,-9.030929,-4.22816,-2.496183,2.083969,-2.40458
-0.7996634,-8.983045,-4.101267,-0.5496183,1.366412,-0.3053435
-0.6081272,-8.942344,-4.218584,0.8931297,0.7480916,0.4122138
-0.641646,-8.995016,-4.000711,-1.824428,-0.4427481,2.122137
-0.6105214,-8.908825,-4.134786,-5.366412,-1.732824,1.770992
-0.7398083,-8.781932,-4.323928,2.641221,2.801527,9.679389
-1.398214,-9.109938,-4.1707,3.358779,1.244275,7.839694
-1.130063,-9.074024,-3.940856,5.78626,2.534351,6.183206
-1.024718,-8.983045,-3.466804,-2.687023,0.03053435,-0.5267176
-1.249773,-8.999804,-3.651158,-0.2900764,-2.641221,1.206107
-1.108515,-9.148245,-4.010288,-2.145038,-0.9847328,1.29771
-1.199495,-8.990228,-3.957615,-2.450382,0.3740458,-0.2442748
-1.216254,-9.050082,-4.024653,-1.442748,2.236641,-0.2900764
-1.130063,-9.021352,-4.027047,-2.10687,2.709924,-0.1832061
-0.9744401,-9.02614,-4.125209,-1.717557,1.473282,3.099237
-1.249773,-9.004593,-4.149151,0.8167939,-1.78626,3.656489
-1.398214,-9.038112,-4.187459,3.709924,-5.465649,-1.877863
-1.249773,-9.078813,-3.859453,-1.053435,0.2290076,-3.305344
-1.115698,-9.062054,-3.900155,-2.664122,4.717557,-4.473282
-1.192312,-9.107543,-4.15394,-0.870229,1.961832,-4.076336
-0.8954314,-9.069236,-3.993528,-1.412214,1.923664,-2.847328
-0.8954314,-9.054871,-4.146757,-3.351145,1.610687,-3.167939
-0.9672575,-9.107543,-4.043807,-0.3282443,-0.2519084,-3.076336
-0.9050082,-9.085996,-4.22816,-0.05343511,1.274809,-2.389313
-0.7972692,-9.030929,-3.967192,0.1526718,2.625954,0.8396947
-0.8236053,-9.033323,-4.106056,-0.2442748,0.4961832,2.267176
-0.8475474,-9.114726,-4.118027,1.0,-1.198473,1.870229
-0.7900866,-9.076419,-3.993528,0.3129771,-0.5419847,2.603053
-0.9864111,-9.141062,-4.019865,0.1679389,-0.1679389,2.099237
-1.022324,-9.153033,-3.900155,-2.267176,0.1832061,0.2671756
-1.240196,-9.138668,-4.268862,-0.3282443,3.083969,-3.022901
-0.6607997,-9.119514,-3.94325,-1.045802,1.549618,-3.465649
-0.9050082,-8.995016,-3.993528,-0.7709923,1.51145,-1.961832
-0.7805098,-9.11712,-4.139575,-2.236641,1.526718,-1.862595
-0.8930372,-9.13388,-4.192247,-3.427481,1.572519,-3.251908
-0.6607997,-9.105149,-4.271256,1.526718,0.4732824,-0.5801527
-0.6153098,-9.138668,-4.182671,-0.5648855,0.5419847,-0.5648855
-0.7134721,-9.021352,-4.204218,0.2442748,1.740458,-1.244275
-0.5482722,-9.076419,-4.187459,-0.2366412,0.5114504,0.6641222
-0.6464345,-9.119514,-4.352659,0.7328244,-1.099237,-0.4580153
-0.5530606,-9.090784,-4.019865,0.6412213,-0.5267176,-0.05343511
-0.6033388,-9.050082,-3.931279,-0.1374046,0.5419847,0.1603053
-0.7230489,-9.131485,-4.156334,0.1526718,-0.5725191,1.007634
-0.5626374,-9.07163,-3.895366,-0.1526718,0.1526718,1.778626
-0.6871359,-9.097966,-4.01747,-2.076336,0.2824428,1.885496
-0.8523358,-9.090784,-3.993528,0.9083969,0.4732824,0.5038168
-0.8690952,-9.078813,-4.101267,-0.2900764,-0.5496183,-1.580153
-0.6320692,-9.138668,-3.892972,-5.091603,2.664122,-3.534351
-0.8523358,-9.057265,-4.400543,-2.725191,2.770992,-6.10687
-0.3471592,-9.220071,-4.343082,2.89313,-1.091603,-3.160305
-0.2178724,-9.047688,-3.957615,0.8244275,2.374046,0.3435115
-0.6105214,-9.090784,-4.077325,-0.1908397,-0.2137404,-0.1984733
-0.4429273,-9.13388,-4.053383,0.8854962,-0.6641222,-1.0
-0.5554548,-9.076419,-3.993528,-0.2748091,0.648855,-0.7328244
-0.2705448,-9.030929,-4.067749,-0.6870229,1.381679,0.1068702
-0.4189853,-9.19134,-4.132392,0.519084,0.2366412,2.007634
-0.5626374,-8.956709,-3.873818,-0.832061,-3.129771,-1.305344
-0.5171475,-9.148245,-4.005499,1.541985,-6.465649,-3.801527
-0.4548983,-8.961497,-3.837905,5.389313,-2.549618,-1.496183
-0.1723825,-9.315839,-3.871424,7.801527,0.4198473,-2.78626
-0.4812346,-9.536105,-3.557784,4.068702,-3.648855,1.862595
-0.237026,-9.344569,-3.5099,3.862595,2.847328,0.2213741
-0.5123591,-9.344569,-3.845088,6.572519,4.282443,0.4885496
-0.320823,-9.476251,-3.722984,3.549618,7.427481,0.480916
-0.3615245,-9.289502,-3.203442,0.389313,3.870229,-1.648855
-0.617704,-9.363723,-3.383007,1.778626,1.229008,-2.137405
-0.4094085,-9.437943,-3.16274,-1.801527,2.137405,-0.832061
-0.248997,-9.320627,-3.220201,-2.328244,-0.9236641,2.526718
-0.4070143,-9.356541,-3.385401,-2.839695,-0.7557252,3.59542
-0.533907,-9.351752,-3.483563,-3.526718,-0.9007633,3.160305
-0.6105214,-9.270349,-3.44765,-4.48855,-0.8015267,2.618321
-0.6009446,-9.509769,-3.548207,-5.412214,-0.9236641,0.9083969
-0.3639187,-9.224859,-3.53863,-3.160305,-1.900763,3.961832
-0.8690952,-9.263166,-3.902549,-1.305344,-2.328244,4.954198
-1.103727,-9.121908,-3.593697,-7.641222,1.473282,-2.854962
-0.2059013,-9.181764,-3.459621,-7.320611,0.6030535,-0.2442748
-0.3902549,-8.975863,-4.01747,-8.877863,-3.709924,7.076336
-1.074997,-9.102755,-4.115633,-6.755725,2.603053,6.862596
-0.8595184,-9.016563,-4.311957,-7.51145,2.198473,7.0
-1.13964,-9.069236,-4.357447,-6.694656,4.236641,2.984733
-1.154005,-8.951921,-4.304775,-6.015267,2.206107,0.3206107
-1.024718,-8.892065,-4.434062,-2.80916,0.6259542,1.305344
-1.089362,-8.92319,-4.575319,-1.572519,-1.854962,0.5419847
-1.029507,-8.793902,-4.515464,-0.6412213,-1.450382,1.244275
-0.9911995,-8.753201,-4.458004,-1.229008,0.9923664,0.2748091
-1.201889,-8.836999,-4.544195,0.129771,0.3969466,1.587786
-1.00317,-8.844181,-4.496311,0.129771,1.175573,1.267176
-1.039083,-8.693346,-4.407725,0.7709923,4.030534,-0.2366412
-1.115698,-9.023746,-4.546589,2.198473,0.7862596,0.9083969
-0.842759,-8.916007,-4.299986,1.122137,0.07633588,2.083969
-1.046266,-8.947132,-4.51307,1.229008,4.541985,2.862595
-1.199495,-8.851364,-4.525041,2.564885,2.526718,0.2519084
-1.022324,-8.813056,-4.058172,-1.503817,1.770992,1.877863
-1.046266,-8.992621,-3.89776,-5.320611,11.08397,2.78626
-0.8236053,-9.083601,-4.580108,-2.396947,15.05344,2.053435
-1.434127,-8.724471,-4.735731,3.717557,7.59542,-1.251908
-1.312023,-8.916007,-4.323928,9.083969,3.839695,-4.59542
-0.7398083,-8.999804,-4.254497,4.419847,1.885496,-5.923664
-0.4740519,-8.999804,-4.120421,3.083969,-0.3129771,-3.541985
-0.5171475,-9.121908,-4.122815,-0.5877862,-0.2900764,-0.1068702
-0.5027823,-8.963891,-4.192247,-8.282443,0.6412213,1.603053
-0.7038953,-9.059659,-4.390966,-3.015267,-0.9694656,2.259542
-0.9648633,-9.016563,-4.254497,-5.770992,4.854962,-2.114504
-0.6009446,-8.968679,-4.589684,-4.625954,4.748092,-3.10687
-0.7685388,-8.949526,-4.486734,-0.5954198,1.816794,-4.91603
-0.3758897,-8.925584,-4.386178,-3.427481,2.061069,-4.08397
-0.4261679,-8.772355,-4.431667,-4.78626,3.320611,-3.916031
-0.2106898,-8.899248,-4.606444,-4.732824,0.7709923,-1.351145
-0.3136404,-8.836999,-4.606444,-1.916031,-0.5496183,0.9236641
-0.5530606,-8.779537,-4.58729,-2.633588,1.068702,0.04580153
-0.4237737,-8.678981,-4.733337,-0.6793893,0.648855,0.8091603
-0.3902549,-8.827422,-4.802769,1.290076,-0.1908397,-0.3969466
-0.4261679,-8.774749,-4.714183,1.580153,0.2671756,-0.3740458
-0.3519476,-8.805874,-4.599261,0.961832,0.129771,0.5877862
-0.3567361,-8.848969,-4.623203,1.267176,-1.152672,1.78626
-0.5003881,-8.827422,-4.556166,0.6641222,-0.3664122,0.5572519
-0.4716577,-8.935161,-4.584896,1.038168,0.2290076,1.129771
-0.4046201,-8.918402,-4.534618,1.175573,-1.480916,2.641221
-0.5554548,-8.911219,-4.702212,4.343512,-3.755725,4.526718
-0.533907,-9.050082,-4.295198,4.0,-3.862595,2.923664
-0.7613561,-8.975863,-4.326323,-1.015267,-0.961832,-1.389313
-0.7254431,-8.932767,-4.601655,1.091603,0.9465649,-2.801527
-0.3806781,-8.971074,-4.359841,1.374046,0.3969466,-2.557252
-0.3615245,-8.944737,-4.357447,0.7709923,-0.1374046,1.625954
-0.521936,-9.050082,-4.206613,-1.038168,0.4351145,2.664122
-0.6799533,-8.947132,-4.216189,-0.740458,-0.5343512,2.625954
-0.6631939,-8.966286,-4.204218,0.4045802,0.007633588,0.1068702
-0.6512229,-9.062054,-4.350265,0.0610687,3.19084,-1.473282
-0.296881,-8.90643,-4.256891,-3.709924,6.335878,-0.2290076
-0.3543419,-8.968679,-4.563348,0.7175572,10.70229,2.435115
-0.9050082,-9.047688,-4.240131,1.450382,2.603053,-2.442748
-0.8954314,-9.354146,-4.903325,17.39695,-8.129771,-7.473282
-0.4237737,-8.279149,-2.719813,4.183206,-2.145038,-15.98473
0.6081272,-9.411607,-3.955221,16.08397,12.09924,-5.061069
-0.1484405,-9.531317,-3.672705,4.236641,5.450382,-7.290076
0.2873042,-9.155427,-3.229778,5.396946,2.625954,-5.053435
0.272939,-9.229648,-3.217807,1.236641,-0.4732824,-1.435114
0.1987187,-9.349358,-3.244143,-2.801527,-0.8473283,0.6946565
0.2657564,-9.176975,-3.383007,-6.259542,1.473282,1.969466
-0.1173159,-9.330204,-3.438074,0.9389313,-1.923664,-0.03816794
0.2681506,-9.299079,-3.440468,-1.221374,-2.977099,-1.175573
0.344765,-9.315839,-3.548207,-6.061069,-2.244275,2.862595
0.04548983,-9.299079,-3.787627,1.129771,-6.427481,3.641221
-0.06703765,-9.366117,-3.514688,-0.08396947,-8.091603,2.045802
-0.1005565,-9.378088,-3.588908,-5.78626,-7.351145,-1.656489
-0.2394202,-9.124303,-3.564966,-4.030534,-7.259542,-4.732824
0.1675941,-9.205706,-3.701436,1.778626,-3.580153,-1.778626
0.332794,-9.299079,-3.694253,-2.0,1.541985,2.152672
-0.04070143,-9.234436,-3.725378,-2.709924,1.793893,3.396947
-0.2106898,-9.200917,-3.773262,-1.435114,1.290076,0.9083969
-0.07182605,-9.200917,-3.734955,-3.687023,1.435114,-2.442748
0.009576806,-9.119514,-3.758897,-3.305344,0.7099237,-3.480916
