ax,ay,az,gx,gy,gz
0.06943185,-9.414001,-2.863465,-0.6564885,-7.694656,-3.717557
-0.2513912,-9.548077,-2.841918,0.2519084,-1.580153,1.244275
-0.7015011,-10.17057,-2.89459,2.396947,-7.51145,-4.717557
-0.4357447,-9.076419,-2.631228,5.160306,2.580153,-3.51145
0.6105214,-8.999804,-2.537854,-12.1374,0.4580153,6.580153
-0.4213795,-10.40281,-3.519476,-6.290076,6.0,-4.748092
0.0,-9.303867,-2.987964,21.0458,7.732824,6.229008
-0.3016694,-9.504981,-2.786851,-10.14504,10.72519,-0.8396947
0.3519476,-9.370906,-2.911349,9.656488,23.67175,1.29771
-0.5482722,-9.653421,-2.372654,-2.374046,18.87023,-0.4732824
-0.3351882,-9.536105,-2.695871,0.8549618,11.20611,3.519084
-0.5506664,-9.574412,-2.662352,-2.206107,1.007634,0.3282443
-1.113304,-9.758766,-1.819593,-4.526718,-0.9465649,1.80916
-0.4118027,-9.509769,-3.10528,-4.183206,-8.687023,7.59542
-1.098939,-9.595961,-2.667141,-5.725191,-25.45038,1.435114
-1.029507,-9.411607,-2.731784,-2.48855,-32.17557,4.885496
-0.4572925,-9.497798,-2.913743,-5.908397,-27.05343,0.4961832
0.1604115,-9.648633,-3.270479,-0.7938931,-7.946565,-2.099237
0.3639187,-9.449914,-3.117251,3.015267,8.946565,-1.70229
-0.4860229,-9.536105,-2.734178,1.312977,8.59542,-9.175572
-0.4501099,-9.399636,-2.640805,-4.145038,11.19084,-5.198473
-0.4477157,-9.519346,-2.930503,-2.312977,6.442748,-5.145038
-0.4525041,-9.545682,-2.808398,-1.938931,7.519084,-1.961832
-0.2896984,-9.406818,-2.925714,-1.160305,13.36641,2.839695
-1.007959,-9.576807,-2.899378,3.236641,8.045801,4.603054
-1.079785,-9.512163,-2.75812,1.40458,-1.854962,4.91603
-0.7996634,-9.569624,-2.834735,7.145038,-5.053435,3.40458
-0.4716577,-9.572019,-2.590526,-0.04580153,-4.48855,2.21374
-0.2896984,-9.622296,-2.748544,1.847328,-1.312977,1.854962
-0.2753332,-9.631873,-2.506729,3.717557,-0.259542,1.610687
-0.2082956,-9.619903,-2.664747,0.05343511,0.2290076,0.4122138
-0.09816227,-9.615114,-2.477999,-2.748092,0.7022901,-0.7633588
-0.1939303,-9.576807,-2.60968,-0.8931297,0.3816794,-1.40458
-0.5003881,-9.653421,-2.360683,2.175573,-2.244275,-2.946565
-0.5291186,-9.452309,-2.571373,-2.396947,-2.290076,-1.496183
-0.9624691,-9.694122,-2.384625,3.503817,-1.137405,1.480916
-0.7637503,-9.442732,-2.628834,-1.717557,4.167939,3.694656
-0.9720459,-9.560047,-2.446874,3.503817,7.51145,4.274809
-1.036689,-9.588778,-2.322376,-2.480916,2.877863,4.625954
-1.01993,-9.610326,-2.456451,-3.358779,1.129771,4.419847
-1.173159,-9.481039,-2.600103,1.549618,-3.610687,1.572519
-0.5793968,-9.68694,-2.346318,-5.503817,-4.908397,-0.7251908
-0.2873042,-9.536105,-2.60968,1.259542,0.3206107,-3.687023
-0.03112462,-9.665392,-2.707842,4.053435,6.396946,-4.854962
-0.009576806,-9.564836,-2.281674,1.633588,11.42748,-6.061069
0.09337386,-9.682152,-2.39899,-3.167939,13.70229,-6.145038
-0.5482722,-9.631873,-2.53546,2.076336,10.45038,-5.328244
-0.6536171,-9.64145,-2.401384,3.29771,6.496183,-2.221374
-0.9959879,-9.576807,-2.202666,-3.80916,-2.083969,2.206107
-0.7661445,-9.77792,-2.573767,3.015267,-10.50382,4.122138
-0.5386954,-9.624691,-2.262521,5.496183,-13.76336,3.160305
-0.3040636,-9.629479,-2.252944,-0.9007633,-15.03817,0.02290076
0.007182605,-9.720459,-2.432509,-0.5267176,-6.603054,-1.068702
0.1915361,-9.655815,-2.161964,-0.6259542,6.068702,-1.419847
0.04548983,-9.679757,-2.202666,0.1679389,14.58015,-1.19084
-0.4357447,-9.643845,-2.23379,-0.7557252,13.0229,0.1908397
-0.7757214,-9.698911,-2.104503,-1.122137,6.343512,0.8244275
-0.641646,-9.562442,-2.432509,-4.10687,-0.4198473,1.244275
-0.4237737,-9.662998,-2.360683,-1.557252,-4.137404,-0.5801527
-0.2681506,-9.698911,-2.437297,-3.427481,-3.89313,-1.770992
-0.260968,-9.780313,-2.44448,3.465649,-4.229008,-0.4961832
-0.3591303,-9.557653,-2.384625,-4.587786,-3.40458,-1.40458
-0.28491,-9.55047,-2.442086,-2.580153,-3.503817,-1.21374
-0.3375824,-9.651027,-2.542642,-2.015267,-6.89313,-1.083969
-0.3375824,-9.586384,-2.360683,-2.290076,-5.824428,-1.015267
-0.320823,-9.651027,-2.571373,-0.4122138,-6.671756,-1.129771
-0.3950433,-9.598354,-2.442086,-1.503817,-8.114504,-1.59542
-0.2585738,-9.653421,-2.511518,0.2366412,-6.908397,-2.473282
-0.3303998,-9.617508,-2.557007,-1.832061,-6.198473,-2.603053
-0.2178724,-9.667787,-2.516306,-0.6183206,-6.549618,-2.961832
-0.213084,-9.569624,-2.497152,1.137405,0.5267176,-0.3740458
-0.3256114,-9.646238,-2.566584,0.3282443,2.969466,0.6564885
-0.05027823,-9.588778,-2.477999,2.839695,12.12977,3.206107
0.05746084,-9.595961,-2.53546,-0.2366412,25.83969,5.38168
-0.09097966,-9.603143,-2.37026,0.740458,37.67939,8.847328
-0.1987187,-9.600749,-2.463634,0.8854962,43.57252,8.816793
-0.7134721,-9.665392,-2.413355,4.374046,42.25191,9.931297
-0.6344634,-9.631873,-2.248155,6.045802,38.93893,10.28244
-0.794875,-9.710882,-2.042254,6.129771,31.09924,9.091603
-0.6560113,-9.701305,-1.99437,4.08397,20.25191,5.068702
-0.6105214,-9.682152,-1.776498,0.961832,12.41221,2.916031
-0.4620809,-9.804255,-1.75495,0.8854962,1.526718,0.2442748
-0.4070143,-9.739613,-1.673547,0.03816794,-5.923664,-1.824428
-0.4788404,-9.720459,-1.795651,-3.435115,-14.58779,-4.587786
-0.4046201,-9.689334,-1.877054,-5.78626,-21.8855,-5.770992
-0.4692635,-9.730036,-2.102109,-3.900763,-27.22137,-6.870229
-0.5051765,-9.579201,-2.094927,-4.076336,-33.77099,-7.137404
-0.3256114,-9.619903,-2.331953,-7.793893,-40.0229,-9.152672
-0.1580173,-9.679757,-2.288857,-3.969466,-39.12977,-9.229008
-0.2537854,-9.55047,-2.566584,-7.480916,-36.89313,-9.832061
-0.2106898,-9.734824,-2.719813,-2.396947,-34.31298,-8.648855
-0.3303998,-9.643845,-2.542642,-1.648855,-30.09924,-7.053435
-0.1388637,-9.603143,-2.612074,1.877863,-21.12214,-4.19084
-0.2154782,-9.617508,-2.521094,-0.7022901,-12.82443,-0.8244275
-0.1867477,-9.56723,-2.437297,1.221374,-3.374046,1.633588
0.1101333,-9.64145,-2.588132,4.572519,6.847328,4.549618
-0.1987187,-9.593566,-2.482787,-0.7633588,19.10687,3.847328
-0.06224924,-9.682152,-2.372654,3.022901,28.9084,5.717557
-0.2513912,-9.708488,-2.425326,3.129771,35.29771,6.419847
-0.5482722,-9.691729,-2.217031,2.847328,35.42748,6.725191
-0.3160346,-9.548077,-2.106898,-1.748092,32.15267,6.221374
-0.5075707,-9.615114,-2.185906,-5.48855,28.8855,4.793893
-0.7086837,-9.691729,-2.185906,-3.839695,18.37405,4.48855
-0.6200982,-9.653421,-2.262521,-4.045802,8.343512,3.114504
-0.5913678,-9.16261,-1.975216,-21.29008,0.2671756,-0.5572519
-0.5291186,-10.16578,-2.913743,7.984733,-5.427481,0.4198473
-0.4165911,-9.64145,-2.456451,12.57252,-9.679389,-0.7480916
-0.5027823,-9.674969,-2.56419,-4.183206,-11.51145,-3.21374
-0.4141969,-9.607931,-2.418144,-0.2290076,-13.53435,-3.954198
-0.2561796,-9.674969,-2.451663,0.5343512,-12.79389,-2.839695
-0.4213795,-9.519346,-2.454057,0.6793893,-12.30534,-2.755725
-0.4118027,-9.655815,-2.47321,0.4961832,-10.79389,-2.122137
-0.3758897,-9.64145,-2.487576,1.076336,-8.473283,-0.7022901
-0.2992752,-9.605537,-2.387019,1.396947,-5.099236,-0.480916
-0.4189853,-9.653421,-2.492364,1.0,-1.938931,-0.01526718
-0.3471592,-9.684546,-2.37026,1.816794,1.183206,0.7099237
-0.4764462,-9.629479,-2.317587,0.519084,2.236641,-0.2290076
-0.5051765,-9.583989,-2.288857,0.1526718,2.946565,-0.05343511
-0.3399766,-9.677363,-2.298434,0.5267176,3.89313,-0.3358779
-0.4213795,-9.617508,-2.286463,-1.70229,3.755725,-0.7175572
-0.4740519,-9.801862,-2.248155,0.6030535,2.29771,-0.4351145
-0.3064578,-9.595961,-2.209848,-0.8015267,2.320611,-0.4580153
-0.2106898,-9.706094,-2.121263,-1.251908,2.717557,-0.610687
-0.2873042,-9.667787,-2.317587,-0.8244275,3.572519,0.8549618
-0.4046201,-9.579201,-2.138022,-2.198473,1.587786,0.03816794
-0.3399766,-9.775525,-2.396596,-1.839695,0.8396947,-0.2900764
-0.3280056,-9.586384,-2.322376,-1.603053,-0.740458,-0.2061069
-0.3471592,-9.691729,-2.315193,-2.755725,-1.206107,0.4198473
-0.4165911,-9.665392,-2.315193,-3.244275,-0.2442748,0.4351145
-0.3016694,-9.679757,-2.329558,-1.900763,-0.1755725,0.4885496
-0.3136404,-9.603143,-2.451663,-1.625954,0.5572519,0.4885496
-0.3854665,-9.595961,-2.540248,-1.152672,1.19084,0.1832061
-0.3423708,-9.595961,-2.494758,-2.366412,-0.2213741,-0.1068702
-0.3232172,-9.627085,-2.470816,-0.4732824,0.9694656,0.7328244
-0.3854665,-9.610326,-2.504335,0.0,-0.09923664,0.1832061
-0.3375824,-9.112331,-2.238579,-12.05344,-1.083969,-1.557252
-0.3064578,-9.885659,-2.53546,6.129771,-0.4274809,0.6946565
-0.2825158,-9.622296,-2.403779,0.7938931,-0.08396947,-0.2824428
-0.344765,-9.655815,-2.499547,2.984733,-0.7328244,0.4961832
-0.3687071,-9.593566,-2.389413,-1.21374,0.4656488,0.259542
-0.4022259,-9.636662,-2.346318,-0.3129771,0.03816794,-0.1145038
-0.3615245,-9.684546,-2.355895,-0.740458,0.09160305,0.6793893
-0.1149217,-9.615114,-2.420538,0.3358779,4.732824,-0.1450382
-0.01915361,-9.65821,-2.389413,-0.259542,10.74809,-0.3358779
-0.1532289,-9.603143,-2.284068,1.480916,14.49618,1.015267
-0.4118027,-9.631873,-2.284068,0.3816794,11.24428,0.4656488
-0.3974375,-9.631873,-2.329558,-4.114504,3.916031,-0.740458
-0.6560113,-9.710882,-2.418144,-5.114504,-6.351145,-1.091603
-0.2394202,-9.564836,-2.207454,-2.167939,-11.47328,-0.6030535
-0.3303998,-9.701305,-2.360683,0.04580153,-13.49618,-1.885496
-0.2418144,-9.574412,-2.420538,0.4274809,-16.40458,-3.007634
-0.2059013,-9.581595,-2.274492,-1.343511,-18.29008,-3.526718
-0.06943185,-9.655815,-2.511518,2.351145,-16.8855,-2.549618
-0.1053449,-9.536105,-2.504335,0.1526718,-10.54198,-1.534351
-0.1628057,-9.624691,-2.492364,0.6641222,-4.282443,-0.778626
-0.08379706,-9.65821,-2.475605,0.4732824,2.916031,1.419847
-0.1460463,-9.639056,-2.329558,0.9236641,10.29771,3.396947
-0.2585738,-9.636662,-2.389413,1.320611,16.96183,5.274809
-0.3806781,-9.598354,-2.303222,0.05343511,19.26718,5.305344
-0.2920926,-9.617508,-2.312799,-0.6183206,22.9542,6.778626
-0.5075707,-9.598354,-2.209848,0.9389313,23.33588,5.374046
-0.5961562,-9.787497,-2.217031,1.29771,20.69466,3.923664
-0.4836287,-9.694122,-2.06859,-0.4656488,17.43511,3.10687
-0.3926491,-9.665392,-2.200271,-0.5801527,15.03817,3.564885
-0.4381389,-9.648633,-2.063802,-2.175573,8.954199,1.366412
-0.3926491,-9.756371,-2.157176,-1.419847,3.80916,-0.4427481
-0.3423708,-9.68694,-2.288857,-1.709924,-0.4656488,-1.099237
-0.4094085,-9.698911,-2.099715,-1.450382,-3.801527,-2.78626
-0.4070143,-9.677363,-2.176329,-1.015267,-8.893129,-2.732824
-0.272939,-9.67018,-2.245761,-2.427481,-11.83969,-3.564885
-0.4261679,-9.583989,-2.305616,-2.59542,-15.84733,-3.709924
-0.3256114,-9.660604,-2.458845,0.02290076,-17.1145,-3.10687
-0.2418144,-9.646238,-2.367866,0.4274809,-13.58015,-3.251908
-0.3280056,-9.651027,-2.406173,-0.7862596,-11.54198,-1.832061
-0.2561796,-9.631873,-2.420538,-0.1832061,-7.0,-1.251908
-0.2537854,-9.569624,-2.363077,-0.1984733,-1.083969,0.5419847
-0.2825158,-9.591172,-2.291251,-0.519084,2.114504,2.381679
-0.1412579,-9.581595,-2.626439,-4.984733,7.412214,2.282443
-0.1795651,-9.689334,-2.389413,0.06870229,16.42748,3.282443
-0.2202666,-9.631873,-2.410961,-0.129771,23.78626,5.816794
-0.3280056,-9.636662,-2.48997,-1.557252,26.77099,5.007634
-0.3112462,-9.624691,-2.482787,-0.05343511,29.63359,6.473282
-0.2513912,-9.627085,-2.458845,0.3816794,34.38168,8.106871
-0.2920926,-9.579201,-2.322376,-1.671756,35.77099,7.122138
-0.4189853,-9.564836,-2.41575,-1.396947,34.46565,6.328244
-0.4022259,-9.674969,-2.372654,-1.503817,28.32825,4.564886
-0.557849,-9.730036,-2.276886,-1.923664,18.33588,2.320611
-0.5506664,-9.720459,-2.291251,1.099237,7.473282,1.129771
-0.3878607,-9.56723,-2.276886,0.9389313,-4.816794,-1.770992
-0.3375824,-9.763555,-2.298434,2.839695,-16.54198,-3.931298
-0.3016694,-9.631873,-2.195483,2.755725,-24.0687,-4.564886
-0.4213795,-9.727641,-2.358289,1.541985,-29.63359,-6.152672
-0.2418144,-9.536105,-2.418144,0.04580153,-31.70992,-6.694656
-0.2561796,-9.677363,-2.358289,-0.01526718,-31.67175,-5.664122
-0.1149217,-9.543288,-2.262521,-5.396946,-29.9084,-4.320611
-0.3016694,-9.682152,-2.523489,-3.679389,-29.45038,-6.274809
-0.2274492,-9.586384,-2.425326,-7.38168,-26.96183,-4.877862
-0.3734955,-9.569624,-2.530671,-3.832061,-27.57252,-4.763359
-0.3974375,-9.581595,-2.516306,0.5954198,-29.30534,-6.694656
-0.4070143,-9.524135,-2.559402,-6.244275,-28.28244,-6.557252
-0.3663129,-9.500193,-2.753332,-1.122137,-26.98473,-4.389313
-0.5147533,-9.708488,-2.612074,-2.0,-26.0229,-4.625954
-0.3902549,-9.488221,-2.63841,-2.083969,-21.31298,-3.954198
-0.2178724,-9.631873,-2.602497,0.4045802,-13.38931,-2.137405
-0.320823,-9.572019,-2.770091,-1.312977,-6.412214,-1.236641
-0.3591303,-9.734824,-2.659958,8.839695,0.9847328,-1.381679
-0.2944868,-9.610326,-2.47321,10.56489,5.442748,0.480916
-0.308852,-9.528923,-2.183512,0.1679389,8.587787,0.03053435
-0.1508347,-9.617508,-2.296039,-2.541985,15.69466,1.816794
-0.01436521,-9.543288,-2.403779,-5.931298,23.81679,2.748092
-0.2992752,-9.713276,-2.504335,-3.603053,28.77863,3.946565
-0.4285621,-9.876082,-2.650381,4.328244,27.41985,3.236641
-0.4644751,-9.629479,-2.269703,11.63359,23.9313,3.335878
-0.272939,-9.263166,-1.934515,-11.46565,20.74809,1.641221
-0.3878607,-9.713276,-2.348712,-7.198473,14.57252,5.236641
-0.2561796,-9.387665,-2.106898,-26.77863,16.28244,3.877863
-0.6392518,-10.27352,-3.29921,5.129771,8.702291,4.648855
-0.2537854,-9.375694,-2.60968,6.053435,1.381679,1.793893
-0.5051765,-9.730036,-2.561796,3.435115,-3.816794,-0.1908397
-0.3902549,-9.595961,-2.554613,2.145038,-8.938931,-0.740458
-0.28491,-9.598354,-2.533065,2.458015,-11.96183,-2.519084
-0.320823,-9.52174,-2.612074,1.580153,-14.0687,-4.48855
-0.1963245,-9.52174,-2.504335,0.3969466,-14.01527,-3.847328
-0.1747767,-9.528923,-2.628834,0.2519084,-10.23664,-3.381679
-0.1771709,-9.600749,-2.509123,0.2824428,-7.877862,-3.251908
-0.1867477,-9.545682,-2.588132,-1.007634,-3.557252,-0.8854962
-0.2394202,-9.617508,-2.360683,-0.2671756,-0.1603053,0.5114504
-0.2059013,-9.64145,-2.530671,-0.6793893,2.763359,0.5267176
-0.248997,-9.56723,-2.499547,-0.1450382,4.694656,1.603053
-0.3040636,-9.665392,-2.461239,-3.007634,5.648855,1.847328
-0.3160346,-9.701305,-2.561796,-0.2671756,5.450382,1.015267
-0.1268927,-9.617508,-2.559402,2.221374,9.931297,2.687023
-0.07661445,-9.615114,-2.456451,0.8931297,16.9313,3.29771
-0.2657564,-9.634268,-2.475605,0.8244275,19.65649,3.19084
-0.1987187,-9.679757,-2.413355,2.610687,22.77099,3.40458
-0.2298434,-9.684546,-2.329558,3.816794,22.9542,3.40458
-0.237026,-9.634268,-2.1883,1.221374,22.38931,3.343511
-0.1508347,-9.684546,-2.269703,-0.7175572,23.56489,4.580153
-0.3974375,-9.660604,-2.236184,-0.870229,20.83206,4.610687
-0.1939303,-9.631873,-2.152387,-0.9007633,16.33588,3.916031
-0.2513912,-9.746795,-2.219425,-0.7251908,14.31298,4.236641
-0.3950433,-9.636662,-2.147599,1.862595,8.748092,4.145038
-0.3280056,-9.65821,-2.133234,0.5496183,4.503817,2.053435
-0.3495534,-9.722853,-2.066196,-0.1603053,-0.519084,1.526718
-0.3543419,-9.643845,-2.181118,-0.4503817,-5.374046,0.2671756
-0.2777274,-9.660604,-2.102109,-0.01526718,-9.702291,-0.778626
-0.344765,-9.725247,-2.200271,-0.5877862,-13.44275,-1.244275
-0.3232172,-9.706094,-2.164358,-0.2671756,-17.29771,-2.656489
-0.2992752,-9.643845,-2.319981,-0.3206107,-21.54962,-3.167939
-0.3591303,-9.734824,-2.173935,-0.2671756,-22.44275,-3.78626
-0.3567361,-9.706094,-2.291251,0.259542,-22.1145,-4.503817
-0.4333505,-9.710882,-2.219425,0.03816794,-22.24427,-4.267176
-0.2944868,-9.55047,-2.202666,-0.6946565,-21.94657,-4.374046
-0.3567361,-9.603143,-2.214637,-3.778626,-17.74046,-2.832061
-0.4525041,-9.68694,-2.20506,-1.526718,-15.69466,-3.290076
-0.4046201,-9.653421,-2.171541,-2.549618,-12.54198,-2.435115
-0.4213795,-9.706094,-2.269703,-1.725191,-8.167939,-1.419847
-0.5291186,-9.713276,-2.154782,-2.824427,-6.358778,-1.496183
-0.4165911,-9.665392,-2.298434,-4.473282,-2.045802,-0.778626
-0.3064578,-9.713276,-2.420538,-3.923664,3.694656,0.2137404
-0.4596867,-9.639056,-2.312799,-0.4351145,6.59542,1.679389
-0.2944868,-9.598354,-2.516306,-5.007634,11.64122,2.198473
-0.6033388,-9.598354,-2.6839,-4.580153,11.68702,2.366412
-0.3830723,-9.643845,-2.418144,0.0610687,12.01527,3.366412
-0.5027823,-9.52174,-2.537854,-2.335878,12.1145,2.70229
-0.4572925,-9.581595,-2.53546,-0.2900764,10.30534,1.793893
-0.4692635,-9.636662,-2.487576,0.4732824,8.183207,1.694656
-0.3711013,-9.636662,-2.554613,0.09160305,6.564886,0.5419847
-0.3663129,-9.639056,-2.554613,0.02290076,4.664122,-0.8396947
-0.4716577,-9.617508,-2.442086,2.59542,0.870229,-0.8625955
-0.320823,-9.572019,-2.509123,0.8091603,-1.381679,-1.610687
-0.4333505,-9.52174,-2.482787,0.6793893,-4.664122,-2.587786
-0.3280056,-9.715671,-2.583344,2.541985,-6.267176,-2.122137
-0.2777274,-9.622296,-2.439692,2.305344,-5.900764,-1.755725
-0.1077391,-9.607931,-2.418144,1.633588,-4.610687,-2.984733
0.04548983,-9.828198,-2.466028,8.603053,-5.389313,-0.9236641
-0.2154782,-9.363723,-2.099715,2.923664,2.992366,0.4885496
-0.1915361,-9.828198,-2.315193,0.03816794,5.519084,0.04580153
-0.225055,-9.543288,-2.149993,-3.221374,7.19084,0.9847328
-0.06464344,-9.653421,-2.221819,-5.473282,9.122137,1.290076
-0.3112462,-9.665392,-2.319981,-1.793893,9.099236,1.801527
0.04788403,-9.485827,-2.260126,-10.32824,10.32824,1.007634
-0.5267244,-9.691729,-2.485181,-7.80916,11.35114,2.236641
-0.2561796,-9.773131,-2.485181,-2.030534,5.954198,1.877863
-0.1580173,-9.648633,-2.499547,-0.259542,6.29771,1.946565
-0.3375824,-9.974244,-2.619257,8.114504,-1.21374,-1.145038
-0.1244985,-9.497798,-2.138022,12.03053,-2.549618,-2.870229
-0.1963245,-9.562442,-2.08535,14.35114,-0.3053435,-2.78626
0.1963245,-9.433155,-1.647211,-3.305344,-2.480916,0.1755725
0.3375824,-9.667787,-2.149993,-6.923664,-2.816794,1.625954
-0.2657564,-9.770737,-2.207454,-5.854962,1.160305,0.870229
-0.1460463,-9.885659,-2.346318,9.389313,-3.549618,1.503817
0.05985504,-9.610326,-2.020706,6.435114,-4.755725,2.145038
-0.1939303,-9.536105,-1.58975,0.3282443,0.6641222,3.206107
-0.5147533,-9.667787,-1.843535,-7.961832,-0.03053435,3.335878
-0.7661445,-9.605537,-1.951274,-10.46565,4.167939,-4.664122
-0.05267244,-10.00776,-2.346318,-9.770992,-0.7175572,0.03816794
-0.2513912,-9.579201,-2.264915,1.938931,-9.030535,2.931298
-0.2106898,-9.531317,-2.240973,-8.740458,-5.442748,1.328244
-0.5243302,-9.722853,-2.456451,-0.2366412,-9.625955,0.1374046
-0.8116343,-9.629479,-2.355895,-1.435114,-17.24427,-1.183206
-0.1819593,-9.579201,-2.568978,-2.053435,-15.03053,-1.770992
-0.4501099,-9.730036,-2.557007,2.038168,-13.56489,-2.664122
-0.3280056,-9.636662,-2.401384,-0.3816794,-11.00763,-2.122137
-0.3950433,-9.64145,-2.408567,0.8396947,-8.297709,-1.923664
-0.2753332,-9.639056,-2.372654,-3.038168,-2.778626,-1.557252
-0.3519476,-9.543288,-2.449268,-1.755725,0.5114504,-1.290076
-0.557849,-9.560047,-2.341529,-6.862596,2.129771,-0.5801527
-0.3998317,-9.629479,-2.626439,-4.10687,4.343512,-0.5648855
-0.3854665,-9.634268,-2.765303,-3.137405,5.465649,0.2213741
-0.2825158,-9.404425,-2.631228,-0.5801527,4.938931,1.40458
-0.5003881,-9.387665,-2.681506,-2.053435,5.847328,-2.679389
-0.1436521,-9.832987,-3.057395,5.175572,3.977099,0.007633588
-0.3591303,-9.378088,-2.437297,1.221374,-0.2824428,-0.8473283
-0.2082956,-9.660604,-2.557007,2.366412,1.053435,0.06870229
-0.2944868,-9.636662,-2.588132,-1.328244,1.061069,-0.6870229
-0.272939,-9.598354,-2.497152,2.137405,0.778626,-0.04580153
-0.2322376,-9.588778,-2.422932,-1.541985,0.7633588,-0.259542
-0.28491,-9.653421,-2.592921,-1.770992,1.053435,0.6641222
-0.3806781,-9.677363,-2.437297,0.7633588,0.8396947,0.007633588
-0.2920926,-9.572019,-2.48997,0.6946565,0.8778625,0.08396947
-0.2657564,-9.586384,-2.44448,0.07633588,1.900763,0.4961832
-0.2777274,-9.579201,-2.48997,0.09160305,2.320611,0.4045802
-0.3998317,-9.679757,-2.494758,0.05343511,2.21374,0.3206107
-0.2585738,-9.564836,-2.468422,2.091603,2.610687,0.5038168
-0.2561796,-9.607931,-2.451663,-0.7328244,2.442748,-0.4732824
-0.1795651,-9.634268,-2.406173,0.610687,3.412214,0.4503817
-0.2633622,-9.572019,-2.365471,-1.007634,1.694656,0.04580153
-0.2466028,-9.684546,-2.442086,-0.5343512,1.977099,-0.3206107
-0.3375824,-9.617508,-2.422932,-0.2519084,0.8167939,0.04580153
-0.1867477,-9.631873,-2.303222,1.137405,0.9160305,0.7328244
-0.1867477,-9.725247,-2.317587,0.06870229,-0.09923664,0.2061069
-0.2513912,-9.545682,-2.257732,-1.419847,1.091603,0.480916
-0.225055,-9.662998,-2.255338,-2.877863,0.5267176,-0.1221374
-0.2585738,-9.710882,-2.511518,-0.8854962,0.8625955,0.480916
-0.1795651,-9.624691,-2.485181,-0.961832,1.694656,0.6717557
-0.296881,-9.689334,-2.501941,0.3435115,-0.7175572,-0.3664122
-0.3567361,-9.651027,-2.501941,-0.1526718,0.7099237,1.076336
-0.3160346,-9.682152,-2.48997,-0.4732824,0.2900764,0.3664122
-0.3687071,-9.643845,-2.482787,-1.694656,-1.21374,-0.5877862
-0.2537854,-9.631873,-2.511518,0.2366412,-0.8473283,0.4045802
-0.2777274,-9.636662,-2.387019,0.6412213,0.08396947,-0.1450382
-0.2513912,-9.622296,-2.363077,0.2290076,-0.1603053,-0.4198473
-0.260968,-9.639056,-2.377442,-0.5877862,-0.8473283,-0.1526718
-0.248997,-9.653421,-2.463634,-0.2366412,-0.06870229,-0.1526718
-0.3184288,-9.624691,-2.425326,-0.6641222,0.5496183,-0.3129771
-0.3136404,-9.631873,-2.480393,-0.129771,0.740458,-0.5267176
0.05985504,-9.512163,-2.403779,-5.114504,4.152672,-0.7557252
-0.03591302,-9.684546,-2.511518,-6.061069,9.824428,-1.854962
0.1053449,-9.629479,-2.616863,-5.183206,17.1145,-0.6030535
0.1268927,-9.478644,-2.667141,-2.801527,22.71756,1.496183
0.02633622,-9.564836,-2.671929,-3.717557,24.58015,2.526718
-0.1244985,-9.476251,-2.815581,-3.938931,24.52672,4.70229
-0.06224924,-9.588778,-2.784456,-1.0,24.13741,6.664122
-0.260968,-9.5385,-2.743755,-3.175573,23.01527,7.061069
-0.1723825,-9.466674,-2.877831,-4.015267,19.56489,8.389313
-0.28491,-9.416395,-2.832341,-8.244275,14.72519,7.335878
-0.4644751,-9.528923,-3.009511,-5.847328,8.038168,6.206107
-0.4501099,-9.294291,-3.086126,-8.396947,1.89313,5.48855
-0.3399766,-9.481039,-3.093309,-9.114504,-4.19084,3.389313
-0.237026,-9.514558,-3.10528,-6.419847,-10.49618,-1.038168
-0.3303998,-9.425972,-3.292027,-8.732824,-15.16794,-3.335878
-0.7541735,-9.198523,-3.349488,-3.40458,-29.83206,-5.740458
-0.4644751,-9.246407,-3.512294,-12.96183,-39.8168,-6.923664
-0.7469909,-9.291897,-4.067749,-1.740458,-39.66412,-11.92366
-0.3232172,-9.267955,-3.430891,-12.45802,-45.60305,-11.66412
-0.5985504,-9.246407,-4.197036,-4.053435,-41.47328,-13.83206
-0.28491,-9.23683,-4.005499,-0.5114504,-29.86259,-13.51145
-0.4141969,-9.16261,-3.938462,1.770992,-17.65649,-10.36641
-0.5386954,-9.124303,-3.792415,3.351145,-8.664123,-7.099236
-0.56982,-9.181764,-3.8403,2.648855,-0.129771,-5.290076
-0.4189853,-9.167398,-3.641581,2.458015,5.526718,-2.450382
-0.5674258,-9.203311,-3.701436,-0.610687,9.312977,-0.5496183
-0.557849,-9.167398,-3.689465,0.7099237,9.122137,2.10687
-0.5434838,-9.270349,-3.632004,-0.2977099,7.259542,1.458015
-0.3423708,-9.246407,-3.562572,2.664122,7.78626,1.923664
-0.2346318,-9.332599,-3.722984,1.122137,12.38931,2.358779
-0.6392518,-9.337387,-3.512294,3.152672,10.31298,0.5267176
-0.2035071,-9.433155,-3.41892,6.0,11.58015,-0.6793893
-0.3734955,-9.464279,-3.292027,5.038168,10.87786,0.1145038
-0.4405331,-9.344569,-3.057395,2.89313,6.389313,-0.832061
-0.1077391,-9.358934,-3.251326,-0.832061,8.389313,0.2442748
-0.1268927,-9.109938,-3.339911,-4.969466,6.931298,0.5572519
-0.009576806,-9.251195,-3.469198,-8.572519,8.732824,1.274809
-0.2059013,-9.02614,-3.600879,-17.18321,9.870229,1.832061
-0.1388637,-9.157822,-3.780444,-20.16794,5.984733,1.519084
-0.1508347,-8.987833,-4.201824,-18.35878,4.236641,2.122137
-0.09337386,-9.126697,-4.402937,-15.24428,5.312977,1.732824
-0.1005565,-8.975863,-4.687847,-13.45038,5.480916,2.29771
-0.08379706,-9.083601,-4.572925,-5.977099,5.259542,2.80916
-0.07661445,-9.018958,-4.711789,-0.3969466,4.870229,2.618321
-0.007182605,-9.01417,-4.661511,3.961832,4.40458,3.51145
-0.1221043,-8.951921,-4.754885,7.343512,3.534351,2.053435
-0.007182605,-8.927979,-4.616021,9.870229,1.671756,1.068702
-0.07182605,-9.102755,-4.36463,13.38168,0.9236641,-0.4732824
-0.04309563,-9.062054,-4.058172,15.17557,0.961832,-1.625954
-0.1556231,-9.141062,-3.991134,18.48092,-1.206107,-1.938931
-0.04788403,-9.227253,-3.670311,16.0458,-3.007634,-1.10687
0.03112462,-9.291897,-3.414132,13.1145,-4.10687,-0.4503817
-0.1029507,-9.217676,-3.260903,4.839694,-4.137404,-0.259542
-0.06224924,-9.356541,-3.165135,2.832061,-3.061069,-0.2977099
-0.03112462,-9.40203,-3.13401,-0.5038168,-0.3816794,-0.08396947
-0.05746084,-9.404425,-3.143587,-1.465649,1.946565,0.832061
-0.1197101,-9.358934,-3.215413,-2.847328,2.954198,0.129771
-0.05985504,-9.363723,-3.169923,-7.137404,3.29771,0.06870229
-0.08379706,-9.25359,-3.155558,-7.946565,4.679389,0.9847328
0.0,-9.184157,-3.406949,-11.8626,5.091603,-0.02290076
-0.04309563,-9.227253,-3.564966,-16.06107,5.427481,-0.03053435
-0.05506664,-9.023746,-3.835511,-17.48092,6.824428,-0.3740458
0.1388637,-9.100361,-4.125209,-15.74046,7.183206,0.2519084
0.05985504,-8.995016,-4.194642,-14.76336,5.48855,-0.007633588
-0.03351882,-9.023746,-4.493917,-10.9313,3.610687,0.3740458
0.0,-9.038112,-4.546589,-5.419847,1.152672,0.870229
-0.02394202,-9.090784,-4.58729,1.114504,-1.129771,-0.08396947
-0.05027823,-9.035717,-4.60405,5.389313,-4.59542,-0.5572519
-0.1723825,-9.009381,-4.508282,10.16031,-11.32061,-2.885496
-0.05985504,-9.023746,-4.19943,13.38931,-16.68702,-5.61832
-0.2777274,-9.054871,-4.07972,15.28244,-25.30534,-8.091603
-0.1053449,-8.992621,-4.048595,12.68702,-34.29771,-12.51908
-0.07661445,-9.047688,-3.792415,12.12214,-38.72519,-13.87786
-0.03830723,-9.052477,-3.730166,6.114504,-41.23664,-15.41985
-0.07182605,-9.105149,-3.811569,1.648855,-40.64885,-17.30534
-0.1292869,-9.124303,-3.701436,-2.80916,-42.22901,-17.92366
-0.03351882,-9.112331,-3.797204,-5.61832,-40.06107,-17.35878
0.01197101,-9.074024,-3.950433,-10.31298,-35.58015,-15.48092
0.1747767,-8.944737,-3.981557,-12.41221,-26.0687,-13.14504
0.3184288,-9.160215,-4.268862,-13.24428,-9.778625,-6.839694
0.3303998,-9.083601,-4.39336,-8.778625,9.267176,1.793893
0.3806781,-8.813056,-4.419696,-10.69466,26.03817,10.9084
0.2418144,-8.635885,-4.704607,-14.32824,39.33588,18.9771
0.4357447,-8.5473,-4.975151,-19.07634,53.80916,29.25954
0.4165911,-8.611943,-5.166687,-17.72519,63.0229,35.12977
0.4860229,-8.614338,-5.556942,-9.488549,67.51908,40.42748
0.2825158,-9.038112,-5.353435,4.007634,61.9313,42.28244
0.7374141,-8.62152,-5.102044,12.65649,65.54962,41.93893
0.1316811,-8.956709,-4.656722,14.42748,56.77863,37.93893
-0.1771709,-9.136273,-4.07972,24.74046,40.21374,30.98473
-1.022324,-9.148245,-3.931279,17.60305,14.87786,18.35114
-0.8643068,-9.105149,-3.414132,11.42748,-12.80916,4.167939
-1.419762,-9.136273,-3.416526,2.198473,-28.37405,-3.580153
-1.122881,-9.085996,-3.734955,1.145038,-47.72519,-9.656488
-1.204283,-9.196129,-3.727772,1.816794,-48.42748,-11.37405
-1.043872,-9.26556,-3.718195,7.923664,-49.94656,-13.90076
-1.091756,-9.267955,-3.392584,13.56489,-46.83969,-14.25954
-0.8355764,-9.346964,-3.366248,6.335878,-41.66412,-16.76336
-0.8882488,-9.203311,-3.064578,7.778626,-42.87023,-17.94657
-0.9768343,-9.323022,-2.6839,-5.80916,-39.98473,-16.80916
-1.086968,-9.411607,-2.887407,-10.08397,-39.29771,-16.82443
-0.7613561,-9.428367,-3.086126,-8.244275,-33.0229,-14.08397
-0.5985504,-9.440337,-3.112462,-9.183207,-24.96947,-8.816793
-0.6009446,-9.536105,-3.050213,-6.91603,-17.85496,-6.244275
-0.4764462,-9.624691,-3.1795,-1.480916,-7.732824,-2.114504
-0.3399766,-9.490616,-3.323152,-1.748092,2.763359,-0.3664122
0.05506664,-9.325416,-3.387795,-1.259542,19.09924,7.351145
-0.296881,-9.406818,-3.454833,1.450382,34.46565,8.832061
-0.225055,-9.306262,-3.198653,4.465649,37.49618,7.78626
-0.3711013,-9.55047,-3.280056,4.129771,44.16794,9.954199
-0.2705448,-9.330204,-3.023877,3.519084,48.86259,10.92366
-0.641646,-9.504981,-3.186682,-4.015267,47.70229,14.0458
-0.1173159,-9.210494,-3.047819,-4.068702,46.93893,13.67939
-0.5793968,-9.390059,-3.294421,-8.473283,45.75573,13.68702
-0.4022259,-9.294291,-3.440468,-16.40458,42.61832,13.0458
-0.521936,-9.121908,-3.806781,-8.229008,45.90076,17.38168
-0.5626374,-9.050082,-3.773262,-18.28244,39.9771,19.77863
-0.8020576,-9.112331,-4.055778,-11.87023,40.37405,22.46565
-0.9935937,-9.215282,-4.103662,-4.427481,30.05343,17.54198
-1.06542,-9.433155,-4.232949,2.862595,11.58015,7.664122
-0.8116343,-9.425972,-3.758897,14.08397,-3.0,-1.274809
-0.7182605,-9.141062,-3.948039,10.14504,-14.51908,-8.908397
-0.5171475,-9.203311,-3.727772,7.045802,-23.67939,-13.45802
-0.3902549,-9.181764,-3.605668,1.053435,-26.84733,-15.69466
-0.5554548,-9.260772,-3.890578,-0.9236641,-29.64122,-15.87786
0.1197101,-9.165004,-3.466804,-2.832061,-36.47328,-17.96947
-0.2801216,-9.220071,-3.871424,-3.526718,-33.56488,-17.36641
-0.2633622,-9.100361,-3.711013,-5.396946,-39.71756,-17.74809
-0.296881,-9.169792,-3.854665,-4.801527,-45.35878,-20.05343
-0.28491,-8.892065,-4.072537,-8.580153,-49.58015,-20.67175
-0.3040636,-8.829816,-4.299986,-13.77099,-55.94656,-23.12214
-0.2394202,-8.506598,-4.565742,-21.91603,-56.14504,-25.39695
0.06464344,-8.422802,-5.145139,-26.67175,-47.67939,-25.63359
0.4525041,-8.406042,-5.109226,-33.9313,-26.93893,-19.62595
0.4788404,-8.817844,-5.626374,-12.41985,-7.709924,-7.89313
0.2681506,-8.688558,-5.365406,-5.251908,20.71756,10.89313
0.5841852,-8.451532,-5.870583,-1.442748,43.96183,25.58015
0.1723825,-8.075643,-5.841852,0.05343511,59.17557,39.60305
0.2059013,-8.161834,-5.95438,2.19084,66.0458,42.83969
0.2178724,-8.11395,-5.98311,4.366412,73.14503,44.40458
-0.332794,-8.228871,-5.011064,-2.671756,58.19084,38.67939
0.1029507,-8.585608,-5.602432,1.793893,47.05344,32.38931
-0.3615245,-8.528147,-5.252879,5.992366,35.9313,25.46565
-0.6440403,-8.841787,-5.142745,10.33588,15.12977,13.48092
-0.4094085,-8.717288,-4.874595,15.68702,-6.274809,3.282443
-0.5363012,-8.681376,-4.88896,9.366412,-19.93893,-5.251908
-0.3878607,-8.916007,-4.879383,25.22137,-33.25954,-10.83969
-0.2633622,-8.492233,-4.189853,11.47328,-44.28244,-14.19847
-0.2537854,-8.884883,-4.357447,3.045802,-49.38931,-18.33588
-0.6560113,-8.916007,-4.218584,4.70229,-53.06107,-22.05343
-0.3974375,-8.753201,-4.292804,-6.351145,-50.44275,-24.80153
-0.5913678,-8.815451,-4.419696,-9.938931,-42.0458,-21.19847
-0.4309563,-8.956709,-4.63278,-14.47328,-30.38931,-15.57252
-0.8571242,-8.822633,-4.46758,-5.80916,-15.65649,-6.549618
-0.9864111,-8.755595,-4.489128,-22.27481,-10.21374,-3.145038
-0.2825158,-9.023746,-5.17387,-7.335878,3.541985,4.877862
-0.6823475,-8.188169,-4.922479,-16.54198,12.0229,9.641221
0.007182605,-8.643068,-5.612009,-13.33588,29.70992,10.89313
0.320823,-8.118738,-5.489904,-9.083969,47.0916,20.69466
-0.009576806,-8.166622,-5.868188,-15.32061,54.16794,20.25191
0.004788403,-8.497022,-5.949591,-11.0458,58.80916,21.17557
0.1963245,-8.470686,-5.810728,-0.2671756,54.37405,24.12214
0.4668693,-8.47308,-5.600038,9.305344,46.59542,25.58015
-0.04070143,-8.5473,-5.398925,5.587786,33.9771,21.74809
0.320823,-8.432379,-5.188235,16.41985,20.48092,15.75572
-0.296881,-8.635885,-5.092467,11.16031,5.656488,8.221375
-0.3639187,-8.805874,-4.924873,21.29771,-18.43511,-2.29771
-0.1628057,-8.643068,-4.477157,3.931298,-31.27481,-10.41221
-0.3902549,-8.846576,-4.659117,12.21374,-44.22901,-16.57252
-0.3711013,-8.578424,-4.458004,4.198473,-60.01527,-27.43511
0.05746084,-8.62152,-4.81474,-1.358779,-67.59542,-35.38168
0.3136404,-8.669404,-4.656722,-4.832061,-67.67939,-36.78626
-0.02873042,-8.523358,-4.865018,-7.664122,-66.65649,-37.10687
0.3064578,-8.564059,-4.996699,-8.083969,-62.31298,-33.9771
0.782904,-8.535329,-5.236119,-11.18321,-44.23664,-23.9771
1.096544,-8.537724,-5.298368,-9.442748,-20.28244,-12.93893
0.914585,-8.62152,-5.468357,-6.259542,4.977099,3.755725
0.8475474,-8.506598,-5.305551,-3.122137,29.94657,20.36641
0.9457096,-8.439561,-5.667076,-1.290076,54.07634,34.89313
0.248997,-8.288726,-5.590461,-2.671756,60.12977,40.38931
0.8116343,-7.929596,-5.62398,0.8854962,74.32061,50.1832
-0.5291186,-8.348581,-5.726931,-7.030534,81.33588,51.0916
-0.2585738,-8.315063,-5.327099,2.045802,68.28244,46.91603
-0.4764462,-8.075643,-5.343858,-4.885496,62.40458,44.99237
-0.9935937,-8.872911,-5.396531,7.549618,44.38168,33.16794
-0.8140285,-8.746018,-4.886566,4.29771,27.07634,19.55725
-0.7996634,-9.011775,-4.884171,7.114504,16.61832,10.20611
-0.7541735,-8.99741,-4.965574,25.80153,7.78626,6.114504
-0.7781156,-9.033323,-4.668694,19.16794,-3.305344,1.129771
-0.7086837,-8.74123,-4.41012,13.03817,-10.15267,-5.992366
-0.6991069,-8.884883,-4.237737,11.0458,-15.75572,-8.961832
-0.545878,-9.100361,-3.928885,12.67176,-18.73282,-10.9771
-0.4860229,-9.234436,-3.912126,9.732824,-21.94657,-13.64886
-0.3830723,-9.16261,-3.560178,5.900764,-22.07634,-12.14504
-0.5051765,-9.244013,-3.627216,4.076336,-30.14504,-15.21374
-0.1388637,-9.215282,-3.495534,8.450381,-35.24427,-16.66412
-0.03112462,-9.31105,-3.270479,2.740458,-38.27481,-14.54198
-0.1221043,-9.478644,-3.402161,1.648855,-39.34351,-13.45802
0.05027823,-9.294291,-3.138798,-0.1526718,-40.33588,-12.0458
0.06703765,-9.318233,-3.478775,-2.48855,-38.67939,-11.57252
0.02633622,-9.354146,-3.368642,-1.343511,-38.16031,-12.77863
0.01197101,-9.358934,-3.308787,-2.221374,-35.35115,-12.83206
0.08858546,-9.421184,-3.497929,5.312977,-30.24427,-10.25954
0.3351882,-9.627085,-3.330335,23.58779,-21.77099,-7.572519
-0.07661445,-9.411607,-2.736573,12.80916,-12.9084,-3.221374
-0.1316811,-9.528923,-2.583344,-1.366412,-4.801527,1.541985
-0.09816227,-9.509769,-2.724602,-1.045802,1.679389,3.343511
-0.05985504,-9.454702,-2.837129,-2.465649,10.8626,5.496183
-0.2106898,-9.564836,-2.935291,-1.320611,19.14504,6.541985
-0.1867477,-9.466674,-2.717419,0.2366412,25.0687,9.053435
-0.2585738,-9.52174,-2.796427,-2.244275,28.55725,11.03817
-0.3782839,-9.452309,-2.738967,-3.70229,31.51145,11.65649
-0.3926491,-9.576807,-2.896984,-2.610687,33.08397,10.67176
-0.296881,-9.469068,-3.026271,-1.580153,34.94656,8.847328
-0.2394202,-9.49301,-3.038242,-0.3206107,36.9084,8.549619
-0.6033388,-9.454702,-2.834735,-3.78626,28.80916,7.870229
-0.3543419,-9.411607,-3.076549,-5.29771,22.87023,3.89313
-0.272939,-9.437943,-3.055001,-5.870229,20.27481,1.076336
-0.1149217,-9.543288,-3.275268,-3.061069,17.22137,-1.709924
-0.2274492,-9.361329,-2.882619,-7.015267,11.35114,-6.068702
0.05746084,-9.445126,-3.081338,-9.21374,5.152672,-9.274809
0.07422025,-9.390059,-3.239355,-6.954198,-3.40458,-11.27481
0.08858546,-9.485827,-3.292027,-1.908397,-13.41221,-9.755725
0.09097966,-9.392453,-3.347094,1.687023,-22.87786,-10.83969
0.1987187,-9.390059,-3.44765,6.091603,-33.70229,-13.64122
0.237026,-9.196129,-3.251326,6.816794,-41.32061,-16.55725
0.5123591,-9.351752,-3.306392,8.106871,-46.35878,-17.23664
0.5554548,-9.277532,-3.354277,6.839694,-47.30534,-16.0458
0.7182605,-9.361329,-3.481169,8.389313,-42.55725,-10.01527
0.56982,-9.428367,-3.371036,7.122138,-31.22137,-5.312977
0.6464345,-9.442732,-3.026271,7.0,-21.13741,0.129771
0.56982,-9.488221,-3.026271,5.839694,-9.412213,4.832061
0.5674258,-9.469068,-2.983175,6.763359,2.923664,7.145038
0.3687071,-9.459491,-2.928109,3.099237,14.27481,8.236641
0.2274492,-9.375694,-2.92332,3.458015,23.75573,9.854961
0.03351882,-9.459491,-2.798822,-0.3206107,27.38931,8.984733
0.0,-9.509769,-2.808398,0.2061069,31.12214,9.129771
-0.04788403,-9.569624,-2.693477,-2.206107,30.8855,7.152672
-0.1699883,-9.56723,-2.585738,-1.175573,31.09924,6.396946
-0.3567361,-9.615114,-2.425326,-7.38168,26.48092,5.961832
-0.3351882,-9.706094,-2.44448,-9.694656,19.62595,12.24428
-0.3758897,-9.809045,-2.401384,-4.015267,14.74809,19.79389
-0.85473,-9.258378,-2.868254,1.473282,4.717557,19.18321
-0.9289502,-9.31105,-2.930503,0.5419847,-7.778626,13.70992
-0.8762778,-9.344569,-2.985569,-5.671756,-8.755725,5.419847
-0.8212111,-9.555259,-3.004723,0.2748091,-8.770992,-1.152672
-0.890643,-9.433155,-2.896984,-7.755725,-3.748092,-2.80916
-0.9504981,-9.186552,-3.038242,-10.54198,-0.6870229,0.2748091
-1.206678,-9.009381,-3.277662,-5.152672,-7.305344,-0.6717557
-1.010353,-9.651027,-2.999935,-11.45038,-4.396946,-0.09160305
-0.6967127,-8.884883,-3.545813,0.2824428,4.427481,4.335878
-0.8379706,-9.232041,-3.591303,-9.053435,-1.290076,7.587786
-1.651999,-9.543288,-3.49314,-4.51145,-6.961832,-0.519084
