ax,ay,az,gx,gy,gz
-0.557849,-9.564836,-2.303222,-3.877863,39.38931,11.71756
-0.5363012,-9.756371,-2.571373,-0.9694656,39.22137,9.106871
-0.4908113,-9.55047,-2.202666,-0.2290076,37.09924,9.641221
-0.5147533,-9.572019,-2.056619,-5.167939,32.41985,11.70992
-0.7517793,-9.756371,-2.319981,-3.480916,24.80153,8.793893
-0.8331822,-9.749189,-2.296039,0.1755725,8.465649,2.534351
-0.8451532,-9.706094,-2.104503,1.267176,-4.61832,-0.8473283
-0.8930372,-9.698911,-2.209848,-0.832061,-15.54962,-5.343512
-0.8164227,-9.607931,-2.27928,0.7328244,-26.84733,-6.671756
-0.7757214,-9.560047,-2.367866,-8.374045,-33.55725,-9.854961
-0.6440403,-9.543288,-2.636016,-2.137405,-36.8855,-10.90076
-0.3663129,-9.701305,-2.583344,4.335878,-31.90076,-9.374045
-0.320823,-9.598354,-2.317587,0.09160305,-25.22901,-7.19084
-0.1340753,-9.674969,-2.410961,-3.557252,-17.9084,-3.900763
0.1005565,-9.607931,-2.545036,-1.053435,-1.351145,-1.847328
0.1604115,-9.569624,-2.451663,-1.763359,12.25191,-0.3435115
-0.04070143,-9.694122,-2.406173,0.6870229,20.03817,3.580153
0.1340753,-9.629479,-2.640805,-0.1908397,34.19847,8.160305
-0.7254431,-9.449914,-2.466028,-5.931298,35.12214,8.488549
-0.5793968,-9.579201,-2.430115,1.480916,35.48092,7.732824
-1.25935,-9.615114,-2.37026,-0.9236641,17.29771,5.015267
-1.309628,-9.701305,-2.537854,1.587786,0.7251908,0.2748091
-1.108515,-9.801862,-2.592921,5.358778,-29.87023,-1.885496
-0.6751649,-9.461885,-2.20506,5.450382,-42.37405,-1.870229
-0.9816227,-9.734824,-1.99437,4.389313,-47.26717,-5.450382
0.02394202,-9.787497,-2.097321,-4.335878,-44.45802,-8.694656
0.02873042,-9.665392,-1.896208,1.282443,-22.67939,-8.969465
-0.03112462,-9.799467,-2.248155,2.603053,-16.87786,-7.496183
-0.01436521,-9.67018,-1.934515,7.229008,-4.053435,-4.320611
-0.3998317,-9.725247,-1.788469,3.748092,-1.305344,-1.290076
-0.28491,-9.679757,-1.750161,2.793893,11.50382,5.778626
-0.4836287,-9.746795,-1.78368,1.068702,20.94657,8.526717
-0.5315128,-9.710882,-1.628057,1.282443,29.41221,9.206107
-0.4932055,-9.715671,-1.714248,-2.534351,35.55725,13.0458
-0.8355764,-9.627085,-1.774103,0.8244275,39.48855,7.732824
-1.070208,-9.696517,-1.673547,-2.442748,37.35878,7.519084
-1.149217,-9.651027,-1.889025,-2.824427,31.09924,7.068702
-1.158794,-9.77792,-1.80044,-1.801527,23.18321,2.458015
-1.058237,-9.749189,-1.771709,2.022901,11.8855,-2.618321
-1.187524,-9.832987,-1.692701,-0.8931297,-5.351145,-6.229008
-0.9457096,-9.667787,-1.539472,-0.480916,-18.29771,-13.21374
-0.7565677,-9.816227,-1.843535,-4.938931,-33.56488,-16.9084
-0.7038953,-9.698911,-1.764527,-8.633588,-50.29771,-18.56489
0.01197101,-9.531317,-2.389413,-18.07634,-49.32824,-19.91603
0.01436521,-9.287108,-2.468422,-15.67939,-52.36641,-11.82443
0.3567361,-9.457097,-3.028665,-17.47328,-45.70992,-2.778626
0.2561796,-9.701305,-3.325546,-8.648855,-36.9771,4.045802
0.1699883,-10.10353,-3.028665,24.09924,-10.83206,6.931298
-0.4333505,-9.222465,-2.710236,8.961832,8.549619,6.839694
-0.4094085,-9.490616,-2.262521,-11.07634,29.46565,-5.137404
-0.8355764,-8.63828,-2.329558,12.98473,22.22901,13.63359
-0.9624691,-10.70208,-2.956839,20.25191,21.21374,-7.259542
-0.5530606,-9.052477,-1.525106,1.847328,23.17557,-14.16031
1.04866,-9.540894,-2.358289,-41.38168,36.91603,9.526717
0.07900865,-9.73243,-3.265691,15.32824,58.22901,11.20611
0.04548983,-10.16578,-2.6839,10.85496,40.67939,7.290076
-1.096544,-9.176975,-0.9864111,5.78626,28.58015,-4.198473
0.296881,-9.725247,-2.437297,-54.49618,6.519084,9.160305
0.4525041,-9.749189,-3.090914,38.22901,28.45802,-3.045802
-0.4668693,-9.888053,-2.363077,9.80916,-15.39695,-3.48855
-0.02394202,-9.131485,-0.2106898,0.1755725,-20.48092,-3.610687
-0.1580173,-10.02931,-3.294421,-3.061069,-16.75573,-3.160305
0.3280056,-9.825804,-2.796427,26.99237,-22.24427,-0.9694656
0.04548983,-9.414001,-1.345541,17.19084,-25.14504,1.969466
0.03112462,-9.306262,-1.079785,-40.44275,-14.0458,8.671756
0.3112462,-10.09874,-2.65517,1.671756,-10.67939,1.992366
-0.08379706,-9.598354,-2.70066,16.64122,7.137404,-1.465649
-0.4213795,-9.730036,-0.5913678,-14.74809,6.175572,-5.015267
0.07182605,-9.68694,-2.355895,-3.603053,5.534351,-0.9312977
-0.3160346,-10.0317,-2.260126,8.496183,1.0,1.48855
0.1987187,-9.509769,-1.915361,28.0916,7.862596,10.80153
-0.9193734,-8.930372,-0.8595184,-37.23664,10.05344,-0.1755725
-0.1532289,-10.46027,-2.590526,4.38168,7.152672,1.061069
-0.6943185,-9.722853,-1.331176,8.167939,3.083969,-0.4045802
0.01915361,-9.662998,-1.87466,-13.17557,-3.389313,-4.51145
0.890643,-9.416395,-3.10528,6.51145,8.992367,6.450382
-0.7086837,-9.68694,-0.7589619,-3.358779,-12.41985,-4.045802
0.05027823,-10.22803,-2.303222,8.412213,9.290076,1.877863
-0.1221043,-9.399636,-1.893814,-1.045802,8.526717,-3.129771
-0.5410896,-9.610326,-1.910573,-0.8473283,-2.030534,1.519084
-0.3519476,-9.828198,-1.893814,0.870229,-8.480916,-0.610687
0.1340753,-9.52174,-1.841141,-3.870229,-11.77863,-0.7862596
0.007182605,-9.873688,-1.92015,-1.679389,-1.091603,1.274809
-0.09816227,-9.555259,-1.857901,-8.702291,1.885496,-0.9236641
-0.1819593,-9.82341,-2.173935,-4.885496,2.053435,0.2061069
-0.3064578,-9.595961,-2.087744,-11.52672,1.320611,-0.8778625
-0.03591302,-9.679757,-2.770091,-10.0458,-3.687023,-1.801527
0.2154782,-9.586384,-2.738967,1.435114,9.244275,4.419847
-0.04788403,-9.495404,-2.734178,-1.007634,14.41985,3.328244
-0.248997,-9.80665,-2.72939,-3.335878,18.81679,2.328244
0.1580173,-9.44752,-2.454057,0.7557252,23.96947,6.152672
-0.2274492,-9.775525,-2.839523,3.648855,30.38931,4.755725
0.03830723,-9.49301,-2.343924,1.641221,32.58779,5.137404
-0.02394202,-9.485827,-2.475605,-11.19084,28.58779,6.656488
0.5506664,-9.720459,-2.928109,-14.25954,31.08397,14.70992
-0.7350199,-9.342175,-2.662352,-0.129771,36.94656,6.068702
-0.6943185,-9.734824,-2.499547,-0.3664122,-0.1679389,-5.801527
-0.7469909,-9.615114,-2.56419,-2.083969,-18.51908,-7.244275
-0.1580173,-9.488221,-2.913743,-1.763359,-28.77863,-9.412213
0.04548983,-9.387665,-2.966416,-1.633588,-31.82443,-11.43511
-0.2657564,-9.634268,-3.117251,-2.083969,-40.12977,-13.41221
0.2178724,-9.354146,-2.798822,4.946565,-49.54962,-11.64122
0.07422025,-9.428367,-2.913743,-10.45802,-48.90076,-14.29771
0.1699883,-9.64145,-3.107674,2.015267,-50.46565,-12.66412
0.4477157,-9.186552,-3.402161,-2.167939,-40.16031,-7.977099
0.3567361,-9.595961,-3.383007,1.603053,-20.0916,-4.0
0.2274492,-9.399636,-3.033453,-0.9847328,-10.41985,0.5877862
0.02873042,-9.454702,-3.241749,2.59542,4.099236,2.801527
-0.3782839,-9.586384,-2.930503,4.91603,2.091603,1.206107
-0.3663129,-9.545682,-2.839523,-4.351145,-0.3816794,-0.3435115
0.3184288,-9.385271,-3.138798,-0.5038168,5.572519,5.458015
-0.1292869,-9.593566,-3.045424,3.282443,13.51145,9.244275
-0.09576806,-9.512163,-3.064578,0.3129771,22.59542,10.1145
-0.344765,-9.476251,-2.882619,-1.206107,23.9084,9.709924
-0.6727707,-9.516952,-3.107674,2.068702,21.44275,9.083969
-0.3160346,-9.495404,-2.65517,-1.70229,19.77099,9.992367
-0.4764462,-9.435549,-2.956839,-2.656489,28.37405,9.519084
-0.05027823,-9.490616,-3.055001,-4.229008,39.1145,9.564885
-0.4118027,-9.816227,-3.763685,19.00763,41.47328,11.84733
-0.7110779,-8.78672,-1.611298,-5.068702,38.77099,7.938931
-0.7254431,-10.04846,-3.0143,-7.053435,33.77863,3.10687
-0.5195417,-9.344569,-2.8491,-6.206107,21.9313,3.671756
-0.4884171,-9.445126,-3.117251,2.687023,9.412213,-2.480916
-1.029507,-9.643845,-2.726996,-2.145038,0.08396947,-6.351145
-0.01197101,-9.40203,-3.184288,-1.534351,-13.78626,-4.854962
0.07422025,-9.380483,-2.825158,3.10687,2.625954,-3.129771
-0.05267244,-9.361329,-3.002329,-1.580153,-4.496183,0.5343512
0.08619126,-9.454702,-2.753332,0.3129771,1.160305,0.09923664
-0.6153098,-9.643845,-2.72939,-1.916031,-22.68702,-9.519084
-0.2346318,-9.473856,-3.110068,-1.396947,-32.59542,-13.64886
-0.248997,-9.411607,-2.949656,-0.8473283,-44.20611,-15.92366
0.2442086,-9.313444,-3.296816,-3.664122,-40.46565,-11.66412
-0.1963245,-9.461885,-3.277662,-2.366412,-41.92366,-8.916031
0.3567361,-9.461885,-3.227384,-4.541985,-42.62595,-6.038168
-0.272939,-9.370906,-3.258508,-2.274809,-43.33588,-7.679389
-0.4596867,-9.502586,-2.94008,-5.450382,-52.64122,-13.58015
-0.01675941,-9.301474,-3.579332,-3.664122,-54.62595,-16.12977
-0.03591302,-9.184157,-3.948039,1.625954,-26.77863,-14.96183
0.1316811,-9.229648,-3.605668,1.396947,-21.80916,-7.732824
-0.308852,-9.366117,-3.442862,-1.358779,-3.946565,2.396947
-0.2274492,-9.366117,-3.505111,3.229008,5.206107,5.740458
-0.2777274,-9.414001,-3.210624,-2.503817,13.16031,12.58779
0.5554548,-9.514558,-3.730166,-2.068702,35.22901,19.75573
-1.01993,-9.208099,-3.265691,6.29771,57.60305,14.89313
-1.024718,-9.502586,-3.311181,-2.068702,38.61069,9.862596
-0.85473,-9.215282,-3.064578,-1.038168,25.43511,10.99237
-0.7589619,-9.437943,-3.445256,-5.832061,17.51145,5.442748
-0.5554548,-9.351752,-3.596091,-3.992366,18.29771,4.755725
-0.5243302,-9.346964,-3.402161,-5.152672,20.43511,5.824428
0.4070143,-9.203311,-3.507505,-5.61832,39.39695,16.33588
-0.605733,-9.157822,-3.622427,-5.419847,52.52672,18.65649
-0.8188169,-9.366117,-3.801992,2.732824,37.70992,14.56489
-2.097321,-9.380483,-3.442862,4.549618,6.801527,-3.51145
-0.4285621,-9.28232,-3.476381,-7.335878,-15.66412,-5.908397
-1.108515,-9.495404,-3.725378,7.80916,-24.99237,-12.33588
-0.641646,-9.241618,-3.560178,12.77863,-34.51145,-17.53435
-0.1316811,-9.323022,-3.46441,11.96947,-26.39695,-18.59542
-0.5075707,-9.205706,-3.258508,6.274809,-39.78626,-20.84733
1.216254,-9.23683,-3.112462,-3.374046,-24.58779,-5.091603
1.268927,-9.370906,-3.711013,3.48855,19.25191,6.633588
0.605733,-9.406818,-3.387795,6.068702,44.62595,17.99237
-0.03112462,-9.727641,-2.959233,4.076336,49.52672,23.9542
-0.782904,-9.165004,-2.679112,29.45038,41.32061,7.854962
-1.525106,-9.730036,-1.273715,-16.09924,29.51145,5.580153
-1.640028,-9.435549,-3.102885,-8.732824,-15.87023,-9.282443
0.2011129,-9.605537,-3.074155,-5.671756,-25.35114,-9.320611
0.007182605,-9.543288,-3.098097,11.19847,-18.9084,-6.770992
-0.04548983,-9.600749,-2.53546,-4.984733,-11.53435,-1.885496
-0.4764462,-9.813833,-2.604892,11.06107,-7.549618,-5.40458
-0.6248866,-9.787497,-2.049437,14.61069,-26.68702,-7.992366
-0.4932055,-9.160215,-1.405396,-15.84733,-52.35115,-14.41985
1.335965,-9.828198,-3.184288,-5.328244,-6.732824,-0.1068702
-0.04309563,-9.31105,-3.385401,-14.00763,6.526718,-6.267176
0.6799533,-9.792285,-2.748544,4.412214,5.236641,8.328244
-0.3064578,-9.514558,-3.189077,-3.389313,3.641221,4.580153
0.2106898,-9.828198,-3.500323,8.030535,12.87023,3.89313
-0.3280056,-9.56723,-2.0231,21.35114,18.03053,10.49618
0.2992752,-9.047688,-1.963245,-18.74809,13.78626,8.496183
-0.9959879,-10.10353,-2.056619,8.099236,42.70992,12.48092
-1.249773,-9.294291,-2.645593,-6.870229,-3.709924,-3.832061
0.5602432,-9.488221,-2.619257,-20.12977,-5.267176,13.47328
-1.101333,-9.840169,-2.983175,1.870229,-9.770992,-9.442748
0.2226608,-9.775525,-2.509123,8.076336,-1.870229,-5.549618
-0.6536171,-9.591172,-1.841141,16.74809,-2.167939,1.717557
-1.149217,-9.334992,-1.764527,-11.23664,-34.22137,-4.358778
0.806846,-9.698911,-2.731784,-3.641221,-19.86259,10.66412
-1.113304,-9.399636,-2.533065,-14.65649,-6.839694,-4.160306
0.3711013,-9.639056,-2.492364,-9.267176,15.41985,0.1526718
-1.041478,-9.593566,-3.050213,-4.374046,17.68702,-0.7557252
-0.3519476,-9.727641,-2.877831,14.16794,-1.725191,-2.419847
0.08858546,-9.557653,-2.846706,-0.3206107,7.099236,5.458015
-0.7733272,-10.11311,-2.590526,18.13741,-7.664122,0.1526718
0.6081272,-9.081207,-2.343924,4.267176,7.152672,9.297709
-0.2154782,-9.737218,-2.272097,8.358779,38.0916,6.725191
-1.68073,-9.82341,-1.477222,4.030534,13.58779,-7.328244
-0.7733272,-9.196129,-1.537078,-17.08397,-22.0916,-2.427481
-0.5650316,-9.957485,-2.918532,-20.15267,-30.0,-5.21374
-0.8882488,-10.22803,-5.410896,63.61832,25.55725,-26.32061
-0.09337386,-9.804255,-2.341529,-6.549618,3.984733,6.89313
-0.617704,-9.342175,-2.621651,12.96183,14.42748,1.465649
-0.85473,-9.67018,-1.733402,-6.145038,-8.465649,-2.358779
-0.8116343,-9.564836,-2.207454,-1.236641,-22.83969,-3.175573
-0.2513912,-10.0772,-3.138798,14.54962,-16.9313,-2.114504
-0.28491,-9.224859,-1.915361,3.832061,-13.07634,-0.7938931
-0.3064578,-9.603143,-2.200271,-17.85496,-9.045801,-2.175573
-0.03112462,-9.428367,-2.341529,-9.244275,10.80153,3.450382
0.1316811,-9.82341,-2.341529,-15.50382,37.26717,3.557252
-1.582567,-9.866506,-2.779668,-3.610687,14.9084,-0.1603053
-0.09576806,-8.789114,-2.647987,14.80916,1.427481,-0.3358779
-0.8978256,-10.0772,-3.107674,17.51908,-10.46565,0.7099237
-0.1005565,-9.085996,-1.92015,-5.374046,-11.05344,-1.305344
0.3303998,-9.26556,-2.631228,-15.60305,10.80153,9.473283
-1.096544,-9.667787,-2.726996,-10.22901,-12.25191,1.870229
0.04548983,-9.873688,-2.952051,11.25954,12.18321,-3.923664
0.04309563,-8.66701,-0.8619126,-16.48092,-22.67939,21.66412
0.07182605,-9.720459,-2.420538,-3.19084,5.08397,-2.320611
-0.7086837,-9.667787,-2.190695,1.832061,-3.442748,-4.251908
-0.4189853,-9.52174,-2.856283,-6.923664,-10.29008,-3.40458
-0.03591302,-9.749189,-2.82037,4.435114,-9.206107,-0.3358779
-0.4788404,-9.5385,-2.513912,-3.671756,-7.0,-0.07633588
-0.1556231,-9.665392,-2.832341,-1.572519,6.236641,-3.167939
-0.6440403,-9.399636,-2.657564,-4.068702,3.091603,-2.251908
0.1364695,-9.816227,-3.368642,1.0,8.419847,5.78626
-0.8690952,-9.198523,-3.55539,34.90076,16.44275,-13.51145
-0.1795651,-10.16099,-2.935291,-3.206107,10.40458,-0.1374046
-0.07182605,-9.385271,-2.303222,17.81679,29.9542,7.847328
-0.8690952,-9.672575,-2.094927,1.603053,16.09924,5.030534
-0.9528923,-9.459491,-1.58975,3.152672,-11.47328,3.679389
-0.533907,-9.579201,-2.109292,-6.015267,-13.46565,-0.9236641
0.1340753,-9.55047,-2.269703,-11.83206,-4.664122,-0.9694656
-0.7517793,-10.14423,-3.239355,0.1526718,8.343512,-2.854962
-0.07182605,-9.445126,-2.358289,12.30534,0.1603053,1.366412
-1.252167,-9.461885,-1.862689,-1.389313,-5.175572,-2.885496
-0.1125275,-10.26634,-3.916914,-1.099237,-7.259542,-9.458015
-0.7086837,-9.744401,-1.668759,6.030534,-0.2900764,-2.305344
-0.2274492,-9.5385,-2.363077,-9.862596,-0.7709923,-4.740458
-0.09097966,-9.579201,-2.138022,0.7175572,-1.244275,1.251908
-0.4644751,-9.619903,-2.217031,-6.801527,-2.068702,-3.083969
-0.06703765,-9.701305,-2.822764,-1.633588,-2.068702,-2.916031
-0.308852,-9.586384,-2.425326,-3.007634,-3.992366,-0.7022901
0.02154782,-9.531317,-2.664747,1.465649,-2.572519,0.3435115
0.1316811,-9.572019,-2.664747,1.969466,10.28244,3.923664
-0.6009446,-9.662998,-2.425326,-6.603054,16.94657,-0.3129771
-0.1508347,-9.679757,-2.358289,5.557252,4.755725,2.816794
-0.6799533,-9.627085,-2.384625,-3.450382,-2.419847,2.312977
-0.3136404,-9.368511,-2.341529,-11.77099,-15.33588,-1.122137
-0.3734955,-9.837775,-2.846706,-4.89313,-6.145038,-4.29771
-0.1795651,-9.643845,-2.870648,1.435114,-10.53435,-1.030534
-0.2274492,-9.622296,-3.066972,2.778626,-0.870229,0.4045802
-0.3495534,-9.337387,-2.817975,-8.419847,-3.541985,-4.435114
-0.3303998,-9.67018,-2.753332,10.92366,2.10687,1.923664
-0.1125275,-9.143456,-2.39899,-11.82443,-0.4351145,6.259542
-0.7781156,-9.346964,-3.083732,-3.40458,11.29008,-5.122138
-0.5530606,-9.713276,-2.643199,3.198473,2.793893,-0.5343512
-0.1484405,-9.672575,-3.701436,5.564886,3.374046,0.2977099
-0.4932055,-9.844957,-2.870648,0.9923664,8.824428,-3.816794
-0.5195417,-9.205706,-2.762909,-1.755725,-0.7709923,-3.832061
-0.1173159,-9.287108,-2.889802,6.351145,-4.465649,2.908397
-0.2418144,-9.67018,-2.712631,-5.312977,3.167939,5.167939
-0.4405331,-9.270349,-2.961627,5.145038,15.05344,0.4885496
-0.9792285,-9.82341,-2.5187,4.099236,0.7862596,-2.19084
0.05267244,-9.385271,-2.918532,4.938931,-6.267176,2.59542
-0.5961562,-9.665392,-2.401384,2.854962,2.610687,-2.328244
-0.2944868,-9.325416,-2.501941,-14.41985,2.419847,2.778626
-0.1340753,-9.157822,-2.401384,-1.503817,-6.21374,0.0
-0.213084,-9.868899,-2.86586,-2.603053,0.2213741,4.259542
-0.4333505,-9.44752,-2.528277,-3.068702,7.70229,0.0
-0.6679823,-9.425972,-2.099715,-4.045802,-4.152672,2.114504
-0.938527,-9.442732,-2.334347,-1.755725,-4.030534,-3.412214
0.1388637,-9.610326,-2.140416,-19.16794,-7.717557,6.824428
-0.7565677,-8.887277,-2.822764,9.045801,-2.229008,-5.244275
-0.1316811,-9.80665,-2.561796,-0.6412213,0.3816794,-0.2137404
-0.6248866,-9.358934,-2.480393,-11.49618,-0.2519084,-1.282443
-0.2346318,-9.636662,-3.280056,-1.938931,2.198473,-1.564886
-0.4955997,-9.428367,-2.674323,-0.3587786,-1.618321,-2.564885
-0.1915361,-9.646238,-3.069367,-3.763359,-0.6870229,-0.7938931
0.06224924,-9.306262,-4.031836,-0.7022901,14.1145,9.59542
-0.2178724,-9.603143,-2.504335,7.305344,-5.931298,5.099236
0.2202666,-9.665392,-2.932897,9.893129,-10.72519,-4.633588
-0.4716577,-9.157822,-2.456451,-10.62595,2.78626,-1.679389
0.05027823,-9.557653,-3.124433,2.725191,-1.633588,3.015267
-0.3423708,-9.564836,-2.868254,-5.320611,4.08397,0.5114504
-0.3160346,-9.464279,-3.083732,0.3587786,4.022901,1.816794
-0.4285621,-9.473856,-3.004723,-2.961832,-2.641221,-1.618321
0.3519476,-9.756371,-3.572149,24.12977,16.27481,-18.01527
0.4955997,-9.634268,-2.612074,-7.839694,5.946565,5.656488
-0.6679823,-9.289502,-2.942474,-4.21374,4.152672,3.251908
0.2226608,-9.440337,-2.880225,1.51145,1.450382,-1.167939
1.175553,-9.200917,-2.607286,7.274809,-1.534351,22.48855
-2.600103,-10.41717,-3.203442,-4.374046,-4.244275,-15.10687
1.410185,-8.580819,-2.437297,8.145039,-1.358779,1.694656
-1.115698,-9.813833,-3.10528,-11.0229,3.625954,-2.78626
0.1101333,-9.251195,-2.770091,4.305344,-3.687023,-1.610687
-0.1316811,-9.44752,-2.942474,-4.61832,1.51145,-0.3664122
-0.308852,-9.425972,-2.789245,-5.389313,0.961832,-2.221374
-0.03591302,-9.617508,-3.126827,3.0,-3.824427,-2.870229
0.01675941,-9.488221,-2.75812,1.160305,2.412214,-3.572519
0.09816227,-9.306262,-3.481169,9.671756,9.755725,9.366412
-0.4740519,-9.497798,-2.631228,-6.374046,-5.984733,-5.900764
0.272939,-9.404425,-2.712631,-0.03816794,-2.229008,3.038168
-0.248997,-9.648633,-3.031059,-0.4961832,2.206107,2.305344
-0.04548983,-9.375694,-2.930503,5.480916,-2.954198,-0.4198473
-0.545878,-9.481039,-2.650381,-7.587786,-6.931298,-8.824428
-0.2801216,-9.610326,-3.311181,-5.244275,-3.70229,-12.9771
1.338359,-9.131485,-3.239355,-0.8931297,-0.9007633,1.045802
-0.5003881,-9.188946,-3.217807,-4.015267,7.465649,10.37405
-0.1628057,-9.598354,-3.203442,-6.198473,-6.282443,-1.839695
0.7757214,-8.980651,-3.189077,-4.748092,9.274809,8.847328
-0.5746084,-9.969456,-3.3447,-1.862595,8.167939,2.580153
-0.2011129,-9.054871,-2.89459,-8.480916,-0.9160305,-0.870229
0.3040636,-9.49301,-3.603274,0.6870229,8.931297,3.648855
0.1149217,-9.315839,-3.852271,9.045801,8.007633,3.801527
-0.2705448,-9.488221,-2.851494,3.229008,2.839695,1.160305
-0.545878,-9.607931,-3.169923,4.450382,-3.480916,-2.770992
0.04309563,-9.43076,-3.095703,5.923664,-5.954198,-0.1984733
0.06224924,-9.603143,-3.069367,6.625954,-0.8854962,6.259542
-0.1292869,-9.469068,-2.662352,3.580153,4.08397,1.396947
-0.4788404,-9.749189,-2.6839,3.083969,0.07633588,1.755725
-0.5147533,-9.562442,-2.741361,2.175573,-6.793893,-1.221374
-0.7613561,-9.461885,-2.813187,0.7251908,-13.89313,-1.770992
-0.4596867,-9.399636,-2.461239,0.5267176,-22.84733,2.061069
-0.3040636,-9.131485,-2.810793,-4.267176,-24.54962,1.022901
-0.8355764,-9.581595,-3.438074,5.236641,-28.00763,-8.862596
-0.02394202,-9.160215,-2.525883,-4.969466,-33.38168,-9.053435
-0.938527,-10.18254,-2.229002,-9.473283,-37.14504,-8.122137
-0.5530606,-8.834604,-3.047819,-2.068702,-35.73283,-6.671756
-1.043872,-9.742006,-2.829947,-10.00763,-37.67939,-12.40458
-1.151611,-9.069236,-2.956839,-12.93893,-49.21374,-16.65649
-0.1963245,-9.734824,-3.383007,-11.51145,-30.24427,-7.580153
1.285686,-9.648633,-3.919308,17.74046,5.664122,0.8473283
0.009576806,-9.078813,-2.829947,-3.832061,36.47328,4.534351
1.13964,-9.698911,-3.742137,2.076336,66.75572,15.38931
-0.02873042,-9.320627,-3.667917,6.366412,84.00764,17.42748
-0.2681506,-9.483433,-3.325546,9.770992,90.07633,20.26718
-1.268927,-9.11712,-2.868254,2.641221,74.38168,20.0458
-1.180341,-9.478644,-2.75812,-3.251908,46.54962,15.0229
-2.178724,-9.507375,-2.391808,-0.4045802,6.725191,8.267176
-1.742979,-9.540894,-2.645593,-3.59542,-42.08397,-3.541985
-0.9097966,-9.464279,-2.566584,4.122138,-65.17558,-10.1374
0.7852982,-9.61272,-3.174711,-9.511451,-49.1832,-12.1145
0.7230489,-9.758766,-3.203442,12.38931,-15.74809,-14.67176
-0.1292869,-9.303867,-2.322376,-4.870229,3.381679,-6.335878
-0.8930372,-9.919178,-2.973598,6.458015,6.122138,1.061069
-1.446098,-9.277532,-2.274492,0.7633588,-2.923664,3.977099
-0.4118027,-9.665392,-2.643199,1.183206,3.633588,9.59542
-0.02633622,-9.473856,-2.604892,-4.923664,12.90076,6.961832
-0.1747767,-9.595961,-2.523489,-3.48855,18.18321,5.679389
-1.434127,-9.598354,-2.458845,-7.068702,2.603053,2.870229
-0.8403648,-9.809045,-2.676718,5.870229,3.618321,1.862595
-0.6368576,-9.387665,-2.477999,-7.847328,-1.59542,-1.793893
-0.9576807,-9.574412,-2.657564,-2.175573,-8.694656,-3.122137
-0.8212111,-9.504981,-2.734178,-2.122137,-16.03053,-5.969466
-0.4716577,-9.562442,-2.722207,-2.221374,-14.54962,-5.389313
0.4165911,-9.519346,-3.138798,0.4427481,10.19084,-1.946565
-0.2274492,-9.581595,-2.705448,5.847328,26.24427,1.221374
-0.8475474,-9.595961,-2.533065,1.954198,29.03817,6.351145
-1.16837,-9.55047,-2.715025,1.045802,21.17557,6.076336
-1.314417,-9.634268,-2.497152,2.152672,7.442748,5.877862
-0.7015011,-9.524135,-2.597709,-2.541985,1.641221,6.335878
-1.082179,-9.78989,-2.5187,7.29771,-12.03053,4.183206
-0.7589619,-9.507375,-2.396596,-3.839695,-22.03817,-0.7633588
-0.7230489,-9.603143,-2.410961,-4.351145,-28.45802,-6.793893
-0.5291186,-9.64145,-2.691083,-4.839694,-28.10687,-9.778625
-0.08379706,-9.528923,-2.671929,-4.183206,-20.0687,-9.900764
-0.2585738,-9.572019,-2.633622,-0.8244275,-10.21374,-10.25191
-0.272939,-9.615114,-2.542642,-0.8778625,0.4503817,-6.610687
-0.3040636,-9.634268,-2.657564,-0.04580153,13.12214,-2.442748
-0.3256114,-9.583989,-2.597709,-0.2061069,22.93893,2.427481
-0.2322376,-9.617508,-2.602497,2.465649,33.67939,7.770992
-0.2944868,-9.476251,-2.624045,-0.129771,44.1832,11.90076
-0.56982,-9.605537,-2.70066,4.755725,47.62595,16.54962
-0.8930372,-9.600749,-2.523489,2.938931,41.8168,15.54198
-0.8116343,-9.593566,-2.568978,1.389313,36.36641,14.68702
-0.7469909,-9.572019,-2.403779,3.427481,31.73282,12.46565
-0.7733272,-9.528923,-2.264915,-1.267176,24.19084,8.625955
-0.9600749,-9.734824,-2.221819,1.145038,14.25191,5.08397
-0.7637503,-9.727641,-2.147599,2.374046,4.21374,-0.3053435
-0.866701,-9.765948,-2.044648,1.610687,-8.030535,-3.847328
-0.8331822,-9.701305,-2.169147,-0.3435115,-19.48092,-6.435114
-0.8116343,-9.713276,-2.327164,2.076336,-28.64886,-8.503817
-0.6224924,-9.689334,-2.248155,-0.08396947,-33.79389,-8.206107
-0.7254431,-9.61272,-2.133234,1.328244,-38.0916,-7.236641
-0.5841852,-9.785102,-1.958457,-7.038168,-35.61832,-6.328244
-0.4788404,-9.631873,-2.334347,-16.63359,-32.1145,-6.877862
-0.5626374,-9.421184,-2.796427,3.328244,-22.8855,-6.832061
-0.4812346,-9.828198,-2.477999,-5.450382,-24.20611,-2.022901
-0.308852,-9.452309,-2.482787,-0.7328244,-8.435115,-3.236641
-0.5746084,-9.624691,-2.494758,-4.10687,-0.7099237,1.351145
-0.6943185,-9.435549,-2.511518,-2.770992,1.160305,0.2748091
-1.956063,-9.900024,-1.599327,10.94656,2.412214,1.114504
-0.05746084,-7.912837,-1.94888,-17.07634,19.96183,11.12977
-0.7996634,-10.28549,-2.952051,-4.931298,21.33588,7.19084
-1.49877,-9.667787,-2.602497,1.40458,20.16794,9.656488
-1.249773,-10.18015,-2.652776,22.37405,13.25191,-11.18321
-0.4716577,-9.528923,-1.929727,34.36641,17.15267,-9.725191
-0.5506664,-9.543288,-1.156399,20.56489,16.01527,-11.35878
-0.2537854,-9.698911,-0.794875,-8.580153,7.977099,-6.755725
-0.06224924,-9.603143,-1.331176,-44.62595,-1.572519,-5.763359
0.02873042,-10.02213,-2.327164,-25.14504,-8.061069,-2.076336
0.05746084,-9.94312,-2.86586,20.48855,-3.129771,-1.877863
0.05746084,-9.572019,-1.757344,55.67939,-10.49618,1.984733
-0.05267244,-8.89446,-0.7852982,-26.52672,-11.55725,0.351145
-0.1460463,-10.4052,-1.774103,-16.93893,-11.91603,-4.122138
0.2202666,-9.617508,-2.138022,-0.5572519,-9.763359,-0.2061069
0.05506664,-9.770737,-1.630451,2.022901,-4.832061,0.3664122
0.05746084,-9.816227,-1.884237,2.824427,-3.19084,1.335878
0.004788403,-9.734824,-1.769315,3.748092,0.04580153,4.312977
0.08379706,-9.722853,-1.764527,0.4427481,4.580153,3.816794
0.1388637,-9.883265,-1.704672,8.641221,12.01527,5.427481
0.2298434,-9.557653,-1.549049,-12.16794,23.99237,3.0
-0.02633622,-9.868899,-1.853112,-10.1145,30.81679,5.854962
-0.2561796,-9.696517,-1.905785,3.832061,31.68702,9.801527
-0.2992752,-9.775525,-1.747767,14.73282,32.38931,11.93893
-1.237802,-10.54646,-1.927332,-0.5725191,32.80916,9.022901
-0.9409212,-9.500193,-1.843535,-20.08397,8.946565,4.396946
-1.010353,-9.871294,-2.406173,-18.19847,-10.74046,3.992366
-1.063026,-9.655815,-2.142811,-0.06870229,-15.28244,4.160306
-1.383849,-9.639056,-2.197877,-4.396946,-28.14504,-3.709924
-1.268927,-9.528923,-2.257732,-5.099236,-42.77099,-8.893129
-1.278504,-9.607931,-2.375048,-5.80916,-57.58779,-11.54198
-0.641646,-9.569624,-2.396596,-7.519084,-59.08397,-15.14504
0.1987187,-9.615114,-2.736573,-7.40458,-34.76336,-24.14504
0.830788,-9.78989,-2.695871,6.954198,-4.0,-15.51145
0.5674258,-9.392453,-2.255338,4.312977,19.03053,-10.53435
-0.1628057,-9.581595,-2.315193,0.4885496,31.76336,-6.030534
-0.05506664,-9.442732,-2.140416,-5.61832,30.42748,2.900763
-0.9337386,-9.727641,-2.753332,-15.87023,23.78626,10.40458
-0.7661445,-9.775525,-2.343924,2.923664,8.648855,9.335877
-0.2106898,-9.603143,-2.475605,-6.022901,6.51145,9.519084
-0.3495534,-9.600749,-2.492364,4.709924,5.236641,8.923664
-0.1987187,-9.720459,-2.138022,6.679389,-5.778626,10.87786
-1.031901,-9.818622,-2.169147,3.29771,-20.33588,4.442748
0.08858546,-9.595961,-2.521094,5.427481,-18.9771,-2.21374
-0.06703765,-9.684546,-2.214637,3.900763,-14.29771,-3.755725
-0.8283938,-9.76116,-2.035071,3.137405,-12.37405,-5.061069
-0.4740519,-9.500193,-1.80044,0.5038168,-7.824428,-1.679389
-0.4285621,-9.713276,-1.771709,-4.145038,3.038168,1.534351
-1.053449,-9.634268,-1.793257,-2.007634,4.229008,4.51145
-1.01993,-9.751583,-2.003947,-7.51145,-1.21374,-1.335878
-0.4884171,-9.82341,-2.0231,-4.122138,1.877863,3.633588
-0.6512229,-9.555259,-2.059013,-5.480916,2.839695,0.6870229
-1.125275,-9.828198,-2.123657,1.305344,4.847328,-6.725191
-0.4884171,-9.342175,-1.963245,20.36641,2.137405,6.259542
-0.4429273,-9.739613,-2.176329,-1.503817,-1.793893,0.2519084
-0.4141969,-9.478644,-1.936909,-1.236641,-2.328244,1.748092
0.1125275,-9.787497,-2.286463,4.320611,25.70992,11.29008
-0.6392518,-9.583989,-1.774103,2.21374,33.23664,12.10687
-0.8834604,-9.840169,-2.003947,7.526718,40.34351,12.67939
-1.651999,-9.727641,-1.678335,10.21374,23.75573,6.801527
-1.486799,-9.828198,-1.374272,16.05343,17.33588,4.862596
-1.764527,-9.694122,-1.209072,9.732824,1.137405,-1.007634
-1.537078,-9.713276,-1.072602,2.618321,-14.69466,-4.167939
-1.108515,-9.73243,-1.158794,3.282443,-25.76336,-6.91603
-0.7637503,-9.880871,-1.134852,-1.206107,-27.57252,-7.122138
-0.5027823,-9.821015,-1.063026,-0.7633588,-25.54198,-8.320611
-0.4525041,-9.576807,-0.794875,-4.89313,-14.74046,-4.267176
-0.4357447,-9.890448,-0.9959879,-4.038168,-6.763359,-1.648855
-0.5147533,-9.844957,-1.118092,-5.435114,0.7251908,0.5877862
-0.6464345,-9.753978,-1.125275,-7.374046,4.641222,1.900763
-0.6560113,-9.825804,-1.290475,-4.137404,5.183206,1.366412
-0.770933,-9.825804,-1.173159,-0.4351145,5.221374,0.7251908
-0.7757214,-9.804255,-1.16837,-0.0610687,6.251908,1.068702
-0.7350199,-9.799467,-1.290475,-0.6564885,5.167939,0.1221374
-0.7589619,-9.861717,-1.285686,-1.89313,3.770992,0.1145038
-0.9361328,-9.787497,-1.290475,-2.992366,-2.503817,0.5267176
-1.027112,-9.866506,-1.359907,-1.641221,-10.20611,-1.519084
-0.8283938,-9.76116,-1.295263,-0.8244275,-15.36641,-3.801527
-0.5746084,-9.904813,-1.352724,1.572519,-15.25191,-4.824428
-0.1723825,-9.722853,-1.403002,-0.03816794,-6.80916,-3.19084
-0.3256114,-9.785102,-1.35033,-0.8167939,0.1984733,-0.5038168
-0.3734955,-9.856929,-1.501164,0.2748091,7.259542,2.885496
-0.4788404,-9.844957,-1.407791,0.2671756,12.8855,2.984733
-0.4333505,-9.770737,-1.295263,1.374046,18.17557,2.374046
-0.4979939,-9.866506,-1.376666,-0.3206107,22.10687,2.824427
-0.5195417,-9.816227,-1.335965,-1.946565,24.96947,2.221374
-0.5626374,-9.830592,-1.47004,-0.8244275,27.41221,1.351145
-0.4716577,-9.792285,-1.283292,-3.984733,29.96947,-0.8549618
-0.4118027,-9.799467,-1.42455,-2.030534,27.89313,-2.664122
-0.5291186,-9.794679,-1.599327,-0.007633588,22.83969,-4.282443
-0.3758897,-10.01495,-1.462857,-1.358779,13.94656,-11.43511
-0.3160346,-9.811439,-1.467646,-1.778626,4.137404,-14.0687
-0.3064578,-9.698911,-1.558625,0.7099237,-10.67939,-10.24428
-0.4716577,-9.739613,-1.460463,0.9389313,-28.41985,-7.847328
0.0,-9.82341,-1.252167,0.1832061,-36.58015,-5.671756
0.03351882,-9.962274,-1.450886,2.725191,-43.05344,-0.8625955
0.2106898,-9.715671,-1.491588,3.312977,-49.52672,1.122137
0.1939303,-9.830592,-1.640028,5.175572,-54.06107,0.7709923
0.225055,-9.794679,-1.594538,2.496183,-48.66412,1.290076
0.3040636,-9.868899,-1.604115,4.78626,-42.48092,1.038168
0.1532289,-9.753978,-1.486799,5.839694,-30.92366,1.534351
0.1149217,-9.911995,-1.307234,6.0,-17.64122,4.305344
0.06703765,-9.639056,-1.146823,2.053435,3.763359,9.251908
0.01436521,-9.847352,-1.247379,5.328244,14.43511,6.557252
-0.3830723,-9.801862,-1.034295,1.427481,23.0,5.709924
-0.4141969,-9.955091,-1.053449,4.099236,28.85496,4.022901
-0.4860229,-9.813833,-0.9002198,0.2519084,31.47328,3.473282
-0.6153098,-9.866506,-0.9672575,-4.10687,33.25954,2.083969
-0.4908113,-9.77792,-1.098939,-6.290076,35.12214,2.931298
-0.4118027,-9.962274,-1.302446,-3.427481,34.90076,0.9847328
-0.4644751,-9.785102,-1.177947,-5.351145,36.68702,4.59542
-0.5506664,-9.885659,-1.33357,-8.358779,36.0687,4.740458
-0.8212111,-9.847352,-1.474828,-7.900764,31.06107,5.931298
-0.9528923,-9.696517,-1.549049,-13.54962,21.9542,4.022901
-1.01993,-9.677363,-1.970428,-14.35114,15.06107,3.526718
-1.151611,-9.662998,-2.0231,-13.66412,3.824427,3.671756
-1.347936,-9.665392,-2.212242,-7.755725,-11.18321,-1.129771
-1.223437,-9.394848,-2.063802,-2.526718,-19.81679,-4.274809
-1.060631,-10.08198,-2.537854,7.0,-36.01527,-12.0458
-0.8283938,-9.531317,-2.133234,0.4580153,-37.62595,-8.007633
-0.6655881,-9.832987,-2.27928,0.7938931,-40.74046,-11.21374
-0.6224924,-9.533711,-2.300828,-10.70229,-40.1145,-12.52672
-0.3615245,-9.799467,-2.442086,1.29771,-37.23664,-14.96183
-0.1340753,-9.739613,-2.252944,4.694656,-25.51908,-9.770992
0.1436521,-9.5385,-2.329558,7.122138,-9.801527,-5.366412
0.2154782,-9.464279,-1.944092,5.206107,2.916031,-1.427481
0.3040636,-9.509769,-1.960851,-10.74046,17.87023,3.664122
0.07900865,-9.900024,-2.015918,-6.877862,25.24427,6.557252
0.01675941,-9.64145,-2.391808,3.221374,33.03053,8.534351
-0.1412579,-9.701305,-2.138022,1.572519,36.38168,6.748092
-0.2777274,-9.734824,-1.896208,-6.709924,42.25191,11.41221
-0.3998317,-9.67018,-2.427721,-1.419847,33.60305,7.099236
-0.6248866,-9.564836,-2.245761,8.541985,32.29771,6.580153
-0.7182605,-9.77792,-1.879448,3.519084,21.70229,3.931298
-0.6607997,-9.591172,-1.872266,1.412214,14.24428,-0.2213741
-0.806846,-9.782708,-1.570596,-5.068702,-0.8473283,-9.480916
-0.04788403,-9.64145,-2.200271,-2.412214,0.08396947,-4.755725
-0.1580173,-9.773131,-2.135628,-3.229008,0.01526718,5.465649
-0.2226608,-9.689334,-2.063802,-7.076336,-5.496183,4.038168
-0.2178724,-9.876082,-2.317587,5.954198,-13.51145,-2.21374
-0.5075707,-9.564836,-2.006341,3.099237,-17.62595,-2.816794
-0.521936,-9.603143,-1.855506,-7.839694,-28.96947,-5.572519
0.1244985,-9.753978,-2.667141,-1.366412,-22.96183,-6.427481
0.2346318,-9.751583,-2.173935,5.977099,-17.87023,-12.12214
0.260968,-9.627085,-2.197877,5.549618,-5.725191,-4.877862
0.2992752,-9.579201,-2.116474,0.3053435,2.129771,-2.198473
0.6943185,-9.785102,-1.963245,4.045802,14.66412,3.557252
0.4692635,-9.701305,-1.99437,4.137404,26.76336,7.366412
0.3303998,-9.684546,-1.927332,0.5343512,41.41221,10.51145
-0.09576806,-9.77792,-1.654393,3.931298,45.61069,16.00763
-0.4836287,-9.655815,-1.604115,-5.022901,41.43512,14.41221
-1.249773,-9.756371,-1.802834,-5.343512,21.10687,8.267176
-1.165976,-9.876082,-1.740585,-4.282443,2.717557,2.29771
-1.074997,-9.895236,-1.759738,-0.6412213,-19.22137,-6.091603
-0.7422025,-9.77792,-1.723825,2.908397,-34.60305,-8.091603
-0.5075707,-9.751583,-1.721431,7.21374,-43.0,-9.679389
-0.1364695,-9.691729,-1.66397,3.847328,-41.45038,-8.022901
0.004788403,-9.67018,-1.510741,0.06870229,-33.51145,-4.320611
0.1771709,-9.718064,-1.687912,0.7938931,-25.0916,-3.038168
0.1891419,-9.730036,-1.584962,0.6641222,-11.81679,-0.1374046
0.09576806,-9.725247,-1.671153,2.0,1.877863,0.870229
0.1340753,-9.773131,-1.455675,-0.4045802,14.52672,3.625954
-0.2011129,-9.878476,-1.556231,0.4961832,21.58015,4.954198
-0.4285621,-9.722853,-1.604115,3.015267,24.16794,5.160306
-0.6320692,-9.73243,-1.364695,2.916031,20.52672,4.61832
-0.7230489,-9.720459,-1.403002,2.175573,14.25191,1.992366
-0.806846,-9.873688,-1.417367,-0.3129771,7.045802,-0.4045802
-0.6560113,-9.765948,-1.151611,-4.496183,0.2213741,-1.610687
-0.296881,-9.888053,-1.438915,-2.396947,-3.10687,-2.473282
-0.2226608,-9.82341,-1.268927,-0.740458,-2.832061,-0.9389313
-0.2537854,-9.842564,-1.292869,-1.687023,-2.282443,-0.1908397
-0.2896984,-9.801862,-1.37906,-2.458015,-1.435114,-1.137405
-0.28491,-9.880871,-1.403002,-1.908397,-1.122137,-0.09160305
-0.28491,-9.830592,-1.491588,-3.923664,0.129771,-0.5648855
-0.2777274,-9.794679,-1.441309,-3.061069,-1.160305,-0.2213741
-0.3950433,-9.787497,-1.601721,-2.19084,-1.793893,0.4198473
-0.3806781,-9.708488,-1.702277,-1.564886,-2.992366,-1.335878
-0.3998317,-9.837775,-1.731008,1.198473,-3.29771,-0.5038168
-0.2873042,-9.706094,-1.628057,-1.832061,-3.40458,0.259542
-0.3040636,-9.758766,-1.63524,0.2442748,-3.633588,0.3053435
-0.2873042,-9.768343,-1.656788,-0.9923664,-2.435115,0.2977099
-0.3423708,-9.775525,-1.707066,-0.01526718,-1.244275,0.8778625
-0.320823,-9.82341,-1.604115,0.7022901,-0.351145,0.3740458
-0.3519476,-9.847352,-1.572991,1.175573,0.4885496,0.05343511
-0.3495534,-9.780313,-1.553837,0.5801527,-0.5267176,-0.4427481
-0.344765,-9.828198,-1.527501,-2.435115,-8.610687,-4.38168
-0.4979939,-9.751583,-1.63524,-1.671756,-16.81679,-4.671756
-0.4525041,-9.689334,-1.606509,-2.709924,-20.14504,-4.961832
-0.2633622,-9.749189,-1.714248,-2.992366,-17.73282,-2.305344
-0.2202666,-9.813833,-1.575385,1.083969,-13.12214,2.290076
-0.296881,-9.835381,-1.599327,-3.351145,-12.20611,-0.8931297
-0.3591303,-9.78989,-1.723825,-3.137405,-8.801527,0.7709923
-0.3734955,-9.713276,-1.850718,-1.717557,-4.396946,1.633588
-0.3040636,-9.861717,-1.704672,-0.08396947,1.381679,1.221374
-0.2896984,-9.856929,-1.843535,2.160305,7.503817,2.442748
-0.4477157,-9.727641,-1.740585,3.152672,10.24428,2.709924
-0.6105214,-9.734824,-1.810017,-0.3358779,8.641221,2.335878
-0.5554548,-9.749189,-1.525106,-14.45038,6.030534,0.4122138
-0.4764462,-9.660604,-1.999158,-6.244275,1.748092,-1.763359
-0.5482722,-9.713276,-2.030283,-5.328244,2.70229,-1.061069
-0.3615245,-9.646238,-2.109292,-5.664122,2.167939,-0.7480916
-0.3591303,-9.5385,-2.092532,-3.450382,2.89313,-1.755725
-0.4525041,-9.751583,-2.063802,0.2213741,0.5648855,0.6564885
-0.1771709,-9.713276,-2.240973,3.961832,6.549618,-1.755725
-0.06943185,-9.55047,-2.121263,0.8091603,12.96183,0.4122138
-0.1125275,-9.64145,-1.893814,2.618321,16.57252,4.320611
-0.2011129,-9.785102,-2.049437,1.89313,18.91603,4.572519
-0.3806781,-9.842564,-1.905785,2.564885,17.38931,3.267176
-0.4381389,-9.773131,-1.853112,3.664122,14.12977,2.78626
-0.6919243,-9.792285,-1.826776,3.358779,6.725191,2.816794
-0.842759,-9.770737,-1.683124,2.450382,-3.0,1.717557
