ax,ay,az,gx,gy,gz
0.5315128,-9.56723,-2.796427,0.5801527,1.450382,0.6259542
0.6440403,-9.557653,-2.726996,1.335878,-0.1374046,-0.2061069
0.7182605,-9.469068,-2.77488,1.305344,-0.1603053,2.038168
0.6775591,-9.552865,-2.8491,1.053435,0.2824428,1.748092
0.5386954,-9.512163,-2.657564,2.137405,0.3206107,0.06870229
0.5075707,-9.560047,-2.6839,0.610687,0.5877862,0.2366412
0.6464345,-9.555259,-2.710236,0.5038168,0.3053435,-0.007633588
0.5506664,-9.708488,-2.750938,0.3358779,-0.06870229,-0.7022901
0.5386954,-9.859323,-2.715025,2.870229,-1.137405,1.78626
0.5841852,-9.837775,-2.772485,1.458015,-1.51145,1.412214
0.6943185,-9.299079,-2.588132,3.671756,-0.6030535,-1.862595
0.5386954,-9.172187,-2.60968,6.221374,0.7022901,-2.435115
1.082179,-9.598354,-2.887407,8.145039,-0.4961832,3.977099
0.4764462,-9.598354,-2.348712,6.793893,-2.0,10.41985
0.1244985,-9.780313,-2.394202,1.221374,-2.656489,8.274809
0.3878607,-9.392453,-2.300828,-2.740458,0.4122138,11.03817
0.7374141,-9.416395,-2.643199,-4.305344,9.923664,11.64886
0.2418144,-9.730036,-2.633622,-4.564886,15.94656,9.152672
-0.4788404,-9.701305,-2.477999,-4.885496,6.847328,3.549618
-0.1819593,-9.696517,-2.693477,-7.557252,1.175573,-5.206107
0.4668693,-9.514558,-2.96881,-6.709924,0.4198473,-4.229008
0.08140286,-9.684546,-3.143587,0.05343511,-2.358779,-6.290076
0.2944868,-9.765948,-3.323152,7.534351,-6.0,-6.396946
0.7972692,-9.519346,-3.311181,12.05344,-5.519084,-1.580153
1.031901,-9.55047,-2.952051,17.98473,2.770992,6.80916
0.782904,-9.713276,-3.052607,19.87786,-0.7099237,11.22137
1.529895,-9.744401,-3.069367,32.46565,3.969466,16.53435
1.503559,-9.361329,-2.779668,24.58779,28.9084,12.61832
0.4668693,-8.456321,-1.553837,-27.28244,53.9084,9.068703
-0.2394202,-8.686164,-2.523489,-22.46565,31.63359,6.053435
0.4189853,-10.1562,-3.215413,1.877863,19.51145,7.175572
0.3711013,-10.41478,-2.032677,5.534351,32.09924,3.374046
-1.177947,-9.425972,-1.000776,-13.87786,26.91603,-0.5877862
0.05985504,-9.883265,-2.286463,-14.22137,24.81679,-16.9313
-1.106121,-10.6135,-1.66397,-10.16031,6.351145,-22.96183
0.4309563,-9.921572,-1.951274,-4.557252,-5.908397,-26.15267
0.1316811,-9.466674,-2.044648,3.015267,-6.030534,-20.90076
-0.3064578,-9.136273,-1.558625,2.229008,-19.94657,-16.67175
0.1436521,-8.748413,-2.212242,-18.67939,-9.389313,-27.18321
0.8116343,-9.203311,-2.552219,-33.70229,-1.877863,-36.67176
1.841141,-9.904813,-3.272874,-36.25191,-10.08397,-33.41985
1.273715,-10.41957,-3.25372,-22.86259,-18.13741,-32.75573
0.9433154,-11.58554,-6.382942,-81.74046,-29.99237,-29.9084
2.303222,-12.21522,-6.112397,-45.75573,6.748092,-89.93893
5.470751,-10.89362,-4.151546,-62.17557,21.26718,-57.9084
2.157176,-10.1562,-5.456386,-35.26717,19.12214,-69.83969
4.417302,-8.880095,-4.958392,-12.78626,24.45038,-72.90839
5.286397,-7.671022,-2.681506,9.832061,11.24428,-66.15267
5.57849,-7.153875,-3.481169,11.63359,4.946565,-57.30534
5.734113,-7.208941,-3.313575,2.748092,-6.89313,-45.41985
5.003881,-5.877765,-4.053383,-6.343512,-2.801527,-31.86259
4.510676,-5.633556,-4.223372,-2.419847,-9.290076,-17.07634
5.00867,-5.616797,-5.00867,-6.412214,2.007634,-4.954198
4.36463,-4.831499,-4.824317,-5.358778,4.076336,7.51145
4.211401,-5.619191,-5.200206,-7.938931,-0.2519084,4.442748
4.668694,-6.038177,-4.450821,-12.51908,-14.53435,13.79389
5.030218,-5.702989,-4.876989,-7.870229,-13.64886,21.86259
4.788404,-6.129156,-4.951209,-5.160306,-4.656488,20.9313
4.237737,-6.301539,-5.061342,-14.57252,-9.259542,17.68702
4.539406,-7.194576,-5.597643,-13.08397,-16.00763,4.48855
5.171476,-7.33344,-5.951985,-2.030534,-12.72519,10.16031
4.295198,-7.295133,-6.119579,0.4274809,-4.160306,15.03053
4.230555,-7.062895,-5.521029,3.80916,-10.45802,18.35114
4.175488,-6.974309,-5.348647,8.137404,-11.43511,24.58779
3.986346,-6.780379,-5.140351,10.72519,-5.625954,27.54962
3.806781,-6.603208,-5.212177,14.16794,-3.717557,27.81679
3.682282,-6.854599,-4.999093,14.91603,-2.541985,27.87023
3.643975,-7.264008,-5.300763,15.73282,3.381679,30.67939
3.095703,-7.57286,-4.915296,16.27481,-5.328244,34.71756
2.813187,-7.793127,-4.999093,13.8855,-8.053435,32.10687
2.571373,-8.049306,-5.023035,21.40458,-14.19847,32.43512
2.616863,-8.815451,-5.058948,22.10687,-19.22137,29.14504
2.054225,-8.118738,-4.845864,14.25954,-15.65649,25.50382
1.340753,-8.487445,-4.929661,13.0687,-17.0687,15.09924
1.917756,-8.078036,-4.503493,9.862596,-18.96947,29.48855
2.765303,-8.722076,-5.427655,28.25191,-7.656488,37.56488
1.419762,-8.722076,-5.319916,44.68702,-12.00763,44.48855
0.4022259,-8.899248,-3.926491,43.00763,-14.1145,34.21374
-0.03591302,-8.963891,-3.572149,34.15267,-19.03053,20.83969
0.03112462,-8.671799,-3.416526,19.47328,-19.55725,17.49618
-0.2202666,-8.827422,-3.691859,16.08397,-25.83969,4.351145
0.914585,-8.753201,-3.550601,18.22901,-17.50382,13.36641
-2.291251,-9.52174,-0.7398083,31.84733,-10.07634,35.93893
-2.035071,-9.928755,-3.244143,28.56489,-29.96183,21.48855
-0.5027823,-9.220071,-3.318364,-5.08397,-15.47328,-14.98473
-0.08379706,-9.255983,-2.533065,-19.9542,13.78626,-14.72519
0.2513912,-9.581595,-3.737349,-16.58779,19.0687,-20.13741
-0.03351882,-9.454702,-3.722984,-12.62595,35.0229,-26.66412
-0.7924808,-9.081207,-3.126827,-4.770992,32.44275,-9.374045
-1.788469,-9.691729,-3.478775,1.977099,12.07634,-14.33588
-0.4309563,-9.011775,-3.325546,1.40458,14.49618,-9.694656
0.4070143,-8.358158,-3.186682,-8.923664,23.43511,9.969465
-0.213084,-9.703699,-4.204218,-13.1374,36.28244,0.7480916
0.7541735,-9.983821,-3.543418,-8.580153,30.38931,-4.938931
0.4381389,-9.07163,-3.854665,13.32824,53.08397,-1.992366
0.6655881,-9.275137,-3.359065,11.20611,42.56488,-9.961832
1.371878,-9.591172,-2.72939,18.0916,22.30534,6.19084
2.018312,-9.533711,-2.592921,17.31298,42.84733,22.37405
0.6847417,-9.186552,-2.602497,18.12214,44.85496,30.54198
1.04866,-10.18254,-2.387019,15.19847,33.30534,14.65649
2.351106,-9.955091,-2.269703,14.57252,39.61832,20.89313
1.359907,-9.562442,-2.044648,12.68702,38.9084,15.25191
0.5195417,-9.437943,-1.587356,7.687023,33.46565,7.450382
0.9864111,-9.425972,-1.477222,4.450382,31.58779,0.2290076
1.319205,-9.885659,-1.520318,3.038168,31.45038,-5.244275
1.309628,-10.04368,-1.323994,1.351145,26.41221,-9.862596
1.187524,-9.665392,-1.319205,3.503817,33.94656,-2.412214
0.7661445,-9.289502,-0.7326257,-1.664122,40.79389,-5.519084
1.127669,-9.485827,-1.053449,-3.122137,45.14504,-3.030534
0.6967127,-9.708488,-1.096544,-6.648855,33.9771,-2.366412
1.079785,-9.332599,-0.9050082,-8.732824,30.38168,4.061069
0.6967127,-9.483433,-1.034295,-13.34351,20.76336,14.93893
0.5482722,-9.816227,-0.9193734,-15.66412,6.374046,23.94657
0.4501099,-10.02452,-0.8643068,-11.36641,0.3587786,23.80153
0.8690952,-9.756371,-0.8451532,-11.87023,2.59542,16.70229
1.029507,-9.674969,-1.012747,-11.19847,7.580153,8.320611
1.249773,-9.610326,-1.496376,-14.26718,24.39695,1.793893
0.5650316,-10.54167,-2.738967,-21.94657,25.66412,-1.534351
0.5051765,-9.844957,-1.860295,-7.679389,9.755725,8.244275
0.5674258,-9.121908,-1.889025,-12.44275,25.43511,-0.7251908
0.6943185,-9.526528,-2.829947,-11.23664,25.96183,-0.4503817
0.5746084,-9.548077,-3.093309,-6.374046,22.03053,8.938931
0.5410896,-9.363723,-2.70066,-3.541985,30.49618,10.08397
0.5865794,-9.320627,-3.141193,-0.9236641,36.1145,6.862596
0.3806781,-9.68694,-3.883395,3.59542,32.75573,14.9771
0.4525041,-9.888053,-3.924097,4.671756,41.35115,19.31298
0.02394202,-9.397242,-3.452439,-0.1221374,39.01527,7.480916
0.06703765,-9.021352,-3.416526,-5.48855,34.84733,3.381679
0.0,-9.138668,-3.124433,-9.458015,38.39695,5.572519
-0.2035071,-9.435549,-3.086126,-10.19084,28.47328,3.053435
0.260968,-9.634268,-2.966416,-9.374045,28.12977,7.374046
0.1580173,-9.768343,-2.885013,-7.679389,30.38931,6.770992
0.02633622,-9.576807,-2.772485,-5.557252,27.43511,-2.969466
-0.007182605,-9.698911,-2.937685,-3.900763,30.29771,-0.9923664
-0.8978256,-9.911995,-2.463634,-5.519084,33.31298,-8.633588
0.2753332,-9.617508,-2.920926,-2.221374,34.58779,-1.122137
-0.237026,-9.464279,-2.863465,-2.091603,31.18321,-5.748092
-0.4333505,-9.516952,-2.5187,0.7175572,26.84733,-8.236641
-0.4165911,-9.560047,-2.650381,1.984733,18.77863,0.6641222
-0.8020576,-9.313444,-2.647987,3.320611,12.54962,-1.916031
-0.08140286,-9.919178,-3.066972,0.8244275,11.33588,-15.18321
0.9193734,-10.08917,-3.318364,3.259542,-13.67939,-31.1145
2.293645,-10.04607,-3.002329,3.259542,-10.38168,-20.9771
2.509123,-9.979033,-3.002329,11.14504,-14.60305,-5.29771
2.226608,-9.409213,-2.229002,22.42748,-10.14504,0.09160305
2.942474,-8.856153,-2.662352,28.12977,-1.954198,-1.687023
2.248155,-8.825027,-2.319981,26.19084,-5.244275,-5.145038
2.422932,-9.229648,-1.39582,17.67939,-7.335878,-9.778625
2.738967,-9.80665,-1.505953,15.84733,-7.122138,-4.793893
2.813187,-9.746795,-1.608904,13.70992,-3.114504,-1.167939
2.341529,-9.054871,-1.73819,13.99237,-2.732824,-6.648855
1.848324,-8.808268,-0.8738836,5.458015,7.816794,-6.78626
1.927332,-8.925584,-1.49877,0.3206107,4.877862,-1.251908
2.360683,-9.291897,-1.031901,-5.572519,6.816794,6.557252
2.37026,-9.469068,-1.122881,-6.137404,6.671756,16.74046
1.570596,-9.519346,-0.7038953,-7.328244,2.587786,19.9542
1.604115,-9.619903,-0.9121908,-5.641222,3.870229,16.48092
1.264138,-9.423578,-0.7517793,-6.977099,5.221374,11.33588
1.747767,-9.528923,-1.00317,-7.80916,7.984733,6.175572
1.661576,-9.662998,-0.8164227,-8.687023,8.832061,4.801527
1.503559,-9.603143,-0.7015011,-7.435114,9.442748,5.946565
1.271321,-9.677363,0.04548983,-11.15267,14.41221,6.267176
1.685518,-10.05325,-1.292869,-21.32825,27.21374,4.900764
2.621651,-10.82658,-3.076549,-28.1145,10.64886,-4.824428
1.939303,-10.06762,-1.118092,-4.740458,14.16031,16.22901
0.6272808,-9.13388,-1.436521,-15.93893,33.65649,14.84733
0.8451532,-9.28232,-2.707842,-15.64886,18.56489,-4.862596
2.173935,-9.229648,-2.916138,-7.022901,23.53435,6.938931
1.25935,-9.119514,-2.851494,-3.793893,25.90076,16.9084
0.7517793,-9.234436,-3.41892,-4.473282,11.21374,8.198473
0.6943185,-8.975863,-3.639187,-7.419847,8.778625,14.67176
0.2394202,-8.959103,-3.744531,-12.71756,7.343512,20.17557
0.2394202,-9.610326,-4.134786,-14.0687,-2.068702,15.65649
0.1675941,-9.579201,-3.926491,-3.916031,-12.98473,12.18321
-0.004788403,-8.482656,-3.057395,-16.96947,-14.57252,-5.328244
-0.4309563,-9.267955,-2.331953,-20.41985,3.51145,-6.435114
0.7015011,-9.560047,-3.603274,-12.72519,3.091603,-6.259542
0.7733272,-9.411607,-3.615245,-13.67939,15.53435,-13.03817
0.4333505,-9.708488,-3.691859,-5.48855,23.0916,-10.17557
0.2705448,-9.440337,-3.639187,-0.2748091,20.8855,2.480916
-0.7182605,-9.469068,-3.260903,7.099236,11.82443,2.175573
-0.9337386,-9.77792,-3.301604,14.06107,-5.801527,-0.2900764
-0.1604115,-9.425972,-3.347094,14.82443,-0.2977099,0.1755725
-1.055843,-9.294291,-3.174711,16.00763,-7.648855,-6.847328
-0.4333505,-9.593566,-3.244143,14.63359,-23.48855,-24.53435
1.90339,-10.66377,-3.919308,15.08397,-23.07634,-25.13741
0.3926491,-9.595961,-3.521871,17.22137,-43.29008,-16.0458
2.391808,-8.652645,-3.100491,15.08397,-31.91603,-16.38168
1.812411,-8.99741,-2.643199,27.36641,-11.85496,-1.122137
1.182736,-8.789114,-2.659958,26.42748,-37.87023,-11.8626
2.243367,-9.215282,-2.252944,26.64886,-31.25954,-10.0229
2.08535,-10.26394,-1.980005,20.54962,-37.55725,-4.458015
1.472434,-10.0772,-1.486799,16.37405,-42.59542,-6.053435
1.644816,-10.14902,-1.987187,14.42748,-45.70229,-4.824428
1.434127,-8.947132,-1.484405,17.61832,-45.43512,-10.92366
1.233014,-8.789114,-1.486799,11.26718,-45.34351,-21.06107
1.546654,-9.148245,-1.735796,6.229008,-52.87786,-11.17557
1.831564,-9.275137,-1.520318,-0.4198473,-49.89313,-4.78626
1.587356,-9.617508,-1.56102,-6.70229,-47.08397,-4.274809
1.611298,-9.804255,-1.477222,-6.709924,-48.53435,-1.89313
1.431733,-9.718064,-1.369483,-6.656488,-41.83206,-0.6793893
1.467646,-9.65821,-1.268927,-5.717557,-38.56488,-4.19084
1.479617,-9.605537,-1.309628,-5.870229,-34.62595,0.7328244
1.422156,-9.674969,-1.146823,-5.396946,-33.58779,4.549618
1.683124,-10.1993,-2.760514,-22.70992,-17.0687,-13.58779
2.08535,-10.67575,-3.244143,-8.877863,-55.67176,-3.167939
1.82917,-9.301474,-1.522712,-7.465649,-15.20611,11.70992
0.3902549,-8.844181,-2.794033,-18.33588,-13.27481,-7.229008
1.228225,-9.232041,-3.483563,-9.603053,-22.87023,-2.29771
1.51553,-8.932767,-3.545813,-7.732824,-10.67939,3.473282
0.5985504,-9.251195,-3.722984,-5.129771,-21.24427,-3.068702
1.417367,-8.99741,-3.828329,-4.862596,-14.41985,-0.8931297
1.134852,-8.774749,-4.254497,-3.648855,-6.137404,5.206107
0.9768343,-8.856153,-4.544195,-5.183206,0.5801527,4.114504
1.146823,-8.791509,-4.551377,-2.763359,8.954199,2.664122
0.9983821,-9.296685,-4.738125,0.02290076,15.55725,5.160306
1.137246,-9.260772,-4.800375,1.290076,25.78626,3.687023
0.8259995,-9.100361,-4.323928,-0.740458,32.03053,-3.312977
0.8930372,-9.074024,-4.146757,-0.9541985,36.8855,-6.557252
1.113304,-9.121908,-4.01747,-0.5038168,41.9084,-6.717557
1.383849,-9.40203,-3.900155,1.549618,50.16031,-2.580153
0.9074024,-9.40203,-3.624821,1.954198,48.51908,-2.717557
1.426944,-9.358934,-3.426103,5.534351,49.01527,3.030534
1.165976,-9.28232,-2.920926,11.22901,57.99237,18.55725
0.9888053,-9.643845,-3.41892,12.87786,60.9771,14.74809
1.113304,-10.15141,-3.107674,14.38168,41.83206,-1.862595
1.699883,-9.102755,-2.80361,8.450381,38.79389,-2.419847
2.509123,-8.41083,-2.506729,5.396946,38.22137,-6.236641
2.461239,-8.925584,-2.166753,0.9541985,42.48092,-8.221375
2.767697,-9.28232,-2.173935,0.6717557,33.80153,-9.671756
2.691083,-9.406818,-1.675941,-5.534351,51.09924,-4.931298
2.078167,-9.512163,-1.774103,-6.122138,46.12214,0.2977099
2.260126,-9.701305,-1.611298,-9.374045,41.74046,6.152672
2.710236,-9.672575,-1.575385,-6.053435,39.8168,11.36641
2.461239,-9.23683,-1.165976,-4.824428,38.48092,11.07634
2.027889,-9.059659,-0.7685388,-5.961832,35.9542,8.374045
2.5187,-9.11712,-1.053449,-7.129771,36.60305,8.656488
1.87466,-9.358934,-0.7206547,-6.465649,28.47328,11.83206
1.594538,-9.289502,-0.6823475,-4.175572,17.83969,15.19847
1.704672,-9.615114,-0.6823475,-3.206107,12.61832,12.33588
1.910573,-9.64145,-1.204283,-3.114504,12.61069,13.43511
1.927332,-9.998186,-1.963245,-11.77863,7.244275,11.00763
2.305616,-9.552865,-1.814805,-8.801527,-10.64886,19.38168
1.656788,-9.28232,-1.122881,-14.41221,8.022901,15.46565
1.041478,-9.782708,-2.025495,-20.0916,1.969466,5.70229
1.486799,-9.466674,-2.456451,-16.57252,-2.519084,3.816794
1.757344,-9.260772,-2.394202,-17.42748,1.763359,0.5725191
1.16837,-9.483433,-2.482787,-17.03053,-1.40458,1.145038
1.247379,-9.624691,-2.707842,-16.29771,-2.374046,2.267176
1.314417,-9.655815,-2.863465,-10.18321,-5.229008,1.671756
1.154005,-9.722853,-2.870648,-4.0,-7.290076,-0.4427481
1.120486,-9.445126,-2.908955,-1.374046,-6.61832,-5.687023
1.419762,-9.299079,-3.107674,1.076336,-5.557252,-8.091603
1.517924,-9.442732,-3.332729,2.312977,-7.10687,-7.099236
1.407791,-9.399636,-3.08852,2.70229,-7.160306,-7.824428
1.405396,-9.351752,-3.258508,5.091603,-11.53435,-9.801527
1.369483,-9.203311,-3.193865,5.198473,-18.33588,-3.770992
1.280898,-9.287108,-3.6751,-7.152672,-18.42748,0.09160305
1.553837,-9.562442,-3.804387,-7.274809,-19.17557,-3.374046
1.656788,-9.083601,-3.392584,-8.236641,-18.35114,-0.9083969
1.594538,-9.356541,-3.663129,-3.442748,-14.64122,-1.618321
1.683124,-9.23683,-3.512294,-8.389313,-14.05344,0.7709923
1.687912,-9.394848,-3.581726,-2.167939,-5.10687,3.19084
0.7900866,-9.26556,-3.849876,-7.274809,-8.114504,5.900764
1.194707,-9.287108,-3.89776,-10.01527,-4.19084,5.587786
2.111686,-9.196129,-3.351882,5.755725,-13.67939,-2.732824
1.173159,-9.109938,-3.564966,4.328244,-9.061069,-0.6793893
1.326388,-9.14585,-3.497929,-2.198473,1.175573,5.969466
1.06542,-9.325416,-3.49314,-3.618321,3.847328,6.969466
1.240196,-9.188946,-3.591303,-1.801527,5.694656,1.198473
1.273715,-9.325416,-3.529053,-1.549618,8.816793,1.793893
1.163582,-9.318233,-3.46441,1.167939,6.671756,-0.1908397
1.086968,-9.287108,-3.385401,1.671756,5.053435,0.3206107
1.182736,-9.289502,-3.337517,-0.6870229,7.793893,2.51145
1.218649,-9.318233,-3.361459,-1.603053,8.519084,2.152672
1.194707,-9.284714,-3.469198,-1.381679,9.625955,1.732824
1.25935,-9.25359,-3.438074,-1.717557,9.053435,2.587786
1.175553,-9.196129,-3.457227,-2.954198,10.35878,5.78626
1.228225,-9.143456,-3.466804,-4.931298,11.07634,10.54198
1.077391,-9.155427,-3.598485,-6.725191,12.32061,11.62595
0.9983821,-9.28232,-3.677494,-6.389313,11.38931,15.67939
0.9648633,-9.181764,-3.6751,-5.183206,15.45038,14.8626
0.8978256,-9.342175,-3.653552,-6.38168,19.39695,12.26718
0.7110779,-9.382876,-3.600879,-5.709924,20.23664,12.69466
0.7062895,-9.260772,-3.682282,-5.625954,21.77863,11.60305
0.7062895,-9.198523,-3.739743,-6.282443,21.67175,11.08397
0.5985504,-9.045294,-3.74932,-8.229008,18.81679,12.07634
-0.1340753,-9.744401,-3.845088,-3.572519,17.0458,4.251908
0.2274492,-9.308656,-4.015076,-7.137404,9.702291,-1.641221
0.4860229,-9.244013,-3.933673,-7.236641,4.954198,-5.748092
0.7062895,-9.136273,-3.926491,-8.290076,5.824428,-5.015267
0.6009446,-9.203311,-3.91452,-5.938931,4.778626,-7.38168
0.8331822,-9.059659,-4.031836,-4.274809,4.183206,-8.267176
0.8619126,-9.160215,-4.065354,-3.916031,4.679389,-8.526717
0.7685388,-9.153033,-4.204218,-3.78626,5.572519,-11.62595
0.7613561,-9.064447,-4.271256,-2.625954,6.167939,-12.9542
1.046266,-8.892065,-4.333505,-2.854962,6.221374,-15.1374
1.30484,-8.868123,-4.340688,-3.473282,8.992367,-8.839695
0.9864111,-8.822633,-4.606444,-4.129771,10.53435,-4.725191
1.290475,-8.813056,-4.627992,-3.961832,11.82443,-5.236641
1.448492,-8.887277,-4.661511,0.4656488,20.83969,-0.01526718
1.795651,-9.064447,-4.687847,4.465649,27.32061,5.08397
1.893814,-9.210494,-4.582502,5.694656,21.80153,-6.389313
2.492364,-8.633492,-3.98874,5.503817,35.9084,-1.083969
2.056619,-8.743625,-3.818752,6.244275,38.45802,-1.847328
2.123657,-8.927979,-3.438074,3.717557,30.1145,-2.832061
2.482787,-8.839393,-3.265691,1.755725,36.75573,-0.4427481
2.387019,-9.062054,-3.112462,1.320611,34.72519,1.664122
2.494758,-9.093178,-3.177106,0.8167939,35.48855,7.961832
2.461239,-8.973468,-3.0143,2.10687,36.68702,9.534351
2.504335,-9.172187,-2.734178,1.656489,36.80916,9.641221
2.176329,-9.14585,-2.839523,1.526718,30.50382,10.28244
2.248155,-9.004593,-2.63841,0.1984733,25.14504,9.167939
2.403779,-9.150639,-2.466028,-2.656489,21.94657,9.931297
2.257732,-9.337387,-2.533065,-2.977099,18.19847,8.366412
2.202666,-9.31105,-2.552219,-2.320611,14.19847,6.610687
2.296039,-9.28232,-2.559402,-1.862595,11.27481,4.900764
2.20506,-9.406818,-2.396596,0.8549618,6.38168,5.129771
2.133234,-9.409213,-2.466028,2.633588,1.679389,2.267176
2.317587,-9.241618,-2.528277,3.076336,0.07633588,-0.389313
2.377442,-9.255983,-2.561796,2.412214,-0.9465649,-1.671756
2.461239,-9.107543,-2.458845,2.366412,-0.2137404,-1.358779
2.482787,-9.153033,-2.482787,1.679389,2.740458,-1.137405
2.557007,-9.155427,-2.612074,-0.9083969,3.29771,-0.4427481
2.568978,-9.217676,-2.588132,-1.549618,3.938931,-1.083969
2.549825,-9.220071,-2.566584,-3.503817,3.847328,-1.870229
2.571373,-9.126697,-2.454057,-3.496183,6.938931,-1.145038
2.346318,-9.093178,-2.32477,-6.870229,5.709924,-1.931298
2.396596,-9.445126,-2.389413,-6.770992,2.145038,3.015267
2.169147,-9.198523,-2.240973,-7.656488,-2.80916,3.358779
2.367866,-9.07163,-2.176329,-7.541985,-5.045802,5.740458
2.23379,-9.186552,-2.025495,-7.450382,-6.923664,3.580153
2.461239,-9.02614,-2.367866,-9.419847,-9.053435,-0.3664122
2.944868,-9.095572,-2.418144,-15.08397,-7.412214,-0.1526718
2.669535,-9.093178,-2.832341,-17.58015,-4.48855,0.1832061
2.078167,-8.767567,-3.813963,-23.69466,-9.40458,-0.5954198
1.843535,-9.476251,-3.236961,-13.9084,-22.07634,6.847328
1.862689,-8.90643,-3.830723,-21.32061,-15.9542,-1.175573
2.217031,-8.971074,-4.197036,-10.72519,-26.87023,-5.770992
1.704672,-9.040505,-4.486734,-12.68702,-18.01527,4.778626
1.266533,-8.949526,-4.905719,-4.931298,-28.99237,-3.625954
1.975216,-8.602366,-4.984728,-2.366412,-23.38168,-3.152672
1.39582,-8.619126,-4.795586,-5.641222,-23.72519,-0.06870229
0.9959879,-8.549694,-4.809951,-2.793893,-26.41221,-1.290076
1.070208,-8.717288,-4.884171,-0.1679389,-26.71756,-2.122137
1.364695,-8.710106,-5.315128,2.396947,-26.85496,-5.938931
1.314417,-8.63828,-5.260061,-0.5038168,-23.32825,-7.549618
1.414973,-8.379706,-5.154716,-1.389313,-20.89313,-10.0916
1.316811,-8.444349,-5.102044,-2.923664,-16.18321,-10.9542
0.7805098,-8.827422,-5.269638,-4.656488,-7.366412,-20.27481
1.944092,-8.628703,-5.21936,0.2061069,-3.541985,-15.45038
2.240973,-8.310274,-5.164293,1.061069,1.129771,-1.496183
1.87466,-8.362947,-5.159505,-4.351145,7.557252,7.984733
1.601721,-8.341399,-5.216966,-6.442748,9.816793,4.977099
1.558625,-8.540117,-5.252879,-2.977099,6.694656,0.7175572
1.814805,-8.53054,-5.324705,-0.6183206,4.816794,2.877863
1.716643,-8.437167,-5.125986,0.8549618,8.045801,2.862595
1.781286,-8.50181,-5.039794,6.954198,14.41221,6.969466
1.558625,-8.542512,-5.114015,4.076336,16.1145,8.129771
1.786075,-8.520964,-5.133168,4.305344,19.50382,7.160306
1.673547,-8.566454,-4.958392,4.70229,18.9084,7.51145
1.716643,-8.5473,-4.898537,7.38168,17.1145,8.931297
1.637634,-8.595184,-4.922479,7.427481,19.47328,13.0687
1.922544,-8.322245,-5.446809,9.259542,20.75573,12.37405
1.479617,-8.647857,-4.790798,10.51145,15.45802,13.26718
1.520318,-8.659827,-4.659117,13.8855,12.70229,11.8855
1.75495,-8.731653,-4.762067,15.43511,14.41221,7.78626
1.99437,-8.578424,-4.331111,15.61069,17.0458,2.305344
1.599327,-8.765172,-4.029441,16.48855,9.847328,0.8625955
1.644816,-9.088389,-3.622427,13.84733,13.35114,8.78626
2.669535,-9.684546,-4.175488,10.87023,11.8855,5.137404
1.75495,-9.232041,-3.241749,10.29771,10.51908,-2.877863
2.075773,-8.884883,-2.724602,8.274809,11.58779,-12.47328
2.296039,-9.342175,-2.789245,5.832061,20.54198,-8.274809
1.54426,-9.947908,-2.626439,6.908397,14.47328,-1.564886
1.556231,-9.77792,-2.221819,9.045801,3.007634,0.6412213
1.307234,-9.734824,-2.260126,11.22901,-3.442748,1.984733
1.312023,-9.469068,-2.061408,12.12977,-11.0,2.541985
1.206678,-9.287108,-1.836353,10.45802,-17.66412,-2.290076
1.462857,-9.23683,-1.704672,7.671756,-18.78626,-3.740458
1.687912,-9.210494,-1.881843,2.717557,-17.14504,-0.5572519
1.570596,-9.270349,-1.989582,0.5343512,-20.76336,-2.984733
1.647211,-10.40999,-1.685518,-1.458015,-23.53435,-7.40458
2.054225,-9.595961,-2.331953,-3.244275,-29.79389,-1.938931
2.319981,-9.40203,-2.274492,-2.931298,-32.38931,0.8015267
2.152387,-9.684546,-2.717419,-9.419847,-28.05343,-1.603053
2.217031,-9.358934,-2.741361,-12.19847,-21.20611,-7.61832
2.209848,-9.016563,-3.244143,-18.9084,-25.31298,-8.496183
1.563414,-9.639056,-3.143587,-10.53435,-39.96947,12.46565
0.5530606,-8.753201,-3.268085,-11.32824,-38.41221,8.061069
-1.625663,-9.186552,-3.718195,-13.63359,-61.44275,-39.70229
-0.3950433,-10.00537,-4.829105,0.8931297,-79.48855,-40.67939
-0.4405331,-9.543288,-4.630386,10.62595,-83.37405,-55.85496
-0.6919243,-9.126697,-4.721366,22.0,-100.7099,-61.0687
0.782904,-8.544906,-4.824317,26.45802,-101.0153,-43.03817
0.9002198,-8.468291,-5.260061,19.48092,-105.1069,-38.65649
1.197101,-8.475474,-4.922479,7.961832,-89.0458,-31.84733
1.692701,-8.702923,-5.291186,2.633588,-83.44275,-28.50382
1.848324,-8.734048,-5.061342,3.923664,-73.92367,-22.76336
1.879448,-8.805874,-5.171476,7.671756,-65.59542,-23.82443
1.221043,-8.707711,-4.975151,6.61832,-55.83969,-24.33588
1.685518,-8.815451,-5.262455,9.251908,-46.38931,-22.81679
1.812411,-8.925584,-5.473145,13.62595,-42.94656,-20.80916
1.54426,-8.664616,-4.793192,14.48855,-38.85496,-16.67175
1.972822,-8.655039,-5.456386,17.32061,-34.01527,-13.44275
1.338359,-9.052477,-4.642357,20.54962,-27.48092,-1.572519
0.9672575,-8.947132,-4.503493,23.15267,-32.26717,-6.938931
1.086968,-8.793902,-4.673482,22.66412,-32.72519,-12.37405
1.568202,-8.956709,-4.412514,30.13741,-30.32825,-14.12214
1.807622,-9.306262,-3.962404,31.54198,-15.78626,-5.038168
0.8619126,-9.325416,-3.790021,34.1832,-25.80916,-18.18321
1.429338,-9.816227,-3.605668,30.16794,-15.83206,-19.40458
0.6320692,-9.11712,-2.202666,28.34351,-36.9084,-15.93893
1.383849,-8.578424,-2.47321,21.16031,-24.90076,-4.007634
0.4764462,-9.399636,-2.382231,18.47328,-44.29771,-7.137404
1.386243,-9.258378,-2.272097,11.39695,-38.09924,-1.282443
1.338359,-9.303867,-1.987187,11.57252,-39.08397,-3.78626
1.735796,-9.483433,-2.047042,10.39695,-33.56488,-0.9312977
1.233014,-9.682152,-1.814805,9.40458,-35.38168,-3.923664
1.355118,-9.674969,-1.886631,6.89313,-34.24427,-7.061069
1.367089,-9.837775,-1.900996,7.603054,-34.28244,-6.641222
0.9648633,-9.859323,-1.752556,10.0687,-45.71756,-6.832061
1.027112,-9.516952,-1.968034,11.25954,-50.53435,-10.84733
1.381454,-9.41879,-1.999158,8.007633,-50.00763,-13.59542
1.47004,-9.674969,-2.032677,7.099236,-48.23664,-12.29771
1.364695,-9.478644,-1.99437,5.648855,-48.09924,-10.39695
1.49877,-9.555259,-2.121263,4.923664,-47.33588,-11.51908
1.599327,-9.469068,-2.111686,3.839695,-47.33588,-12.59542
1.642422,-9.469068,-2.164358,3.969466,-44.45802,-12.61832
1.359907,-9.524135,-1.836353,3.564885,-39.21374,-8.145039
1.764527,-9.545682,-2.190695,3.717557,-37.43512,-5.534351
1.572991,-9.440337,-2.140416,0.9160305,-30.19084,-2.755725
1.376666,-9.564836,-2.195483,2.030534,-27.83969,-1.755725
1.364695,-9.466674,-2.202666,-0.9770992,-24.77099,1.183206
1.49877,-9.41879,-2.262521,-3.229008,-20.32061,1.19084
1.572991,-9.497798,-2.154782,-4.534351,-16.20611,1.900763
1.374272,-9.576807,-2.367866,-6.900764,-11.39695,6.022901
1.137246,-9.55047,-2.707842,-6.877862,-10.8855,7.007634
1.012747,-9.397242,-2.657564,-7.671756,-9.740458,5.08397
0.8930372,-9.485827,-3.009511,-8.78626,-8.740458,4.648855
0.7685388,-9.44752,-3.08852,-7.427481,-11.51145,5.70229
0.6991069,-9.370906,-3.145981,-5.435114,-7.854962,0.961832
0.902614,-9.370906,-3.643975,-2.48855,-5.496183,-1.832061
0.7661445,-9.289502,-3.727772,-0.3969466,-4.08397,3.099237
0.3974375,-9.531317,-3.782839,-1.198473,3.045802,7.832061
0.2657564,-9.375694,-3.948039,1.335878,0.8015267,7.778626
0.5123591,-9.435549,-3.967192,0.2366412,8.931297,11.19847
0.1173159,-9.234436,-3.835511,-2.946565,5.625954,0.778626
0.2801216,-9.040505,-3.833117,-6.694656,6.755725,2.587786
-0.1604115,-9.074024,-3.136404,-8.80916,8.625955,8.007633
0.01915361,-9.497798,-3.600879,-8.343512,3.114504,3.59542
0.1340753,-9.524135,-3.466804,-7.992366,7.152672,-5.80916
0.1532289,-9.509769,-3.495534,-4.328244,-2.778626,-14.54962
0.7110779,-9.481039,-3.828329,-1.076336,6.78626,-8.358779
0.1460463,-9.662998,-3.213019,-0.1526718,10.29771,1.824428
0.2011129,-9.423578,-3.859453,7.374046,-2.625954,16.77099
-0.557849,-9.239224,-3.409343,7.389313,-6.51145,15.22137
-0.5099649,-9.471462,-3.3447,7.778626,-8.083969,2.664122
-0.7110779,-9.624691,-3.416526,8.862596,-16.86259,-5.419847
-0.3974375,-9.366117,-3.720589,7.938931,-16.09924,-11.27481
-0.7254431,-9.44752,-3.782839,10.1374,-26.61069,-17.22137
-0.7445967,-9.184157,-3.813963,8.694656,-39.48855,-21.23664
-0.9696517,-9.002198,-3.928885,1.427481,-55.10687,-35.34351
0.009576806,-8.707711,-3.854665,-2.641221,-55.65649,-32.09924
-0.3758897,-9.19134,-4.163517,-0.5496183,-53.0687,-32.03817
0.4141969,-9.969456,-4.086902,3.931298,-49.78626,-41.9084
1.328782,-9.756371,-3.787627,6.633588,-36.83206,-39.14504
2.08535,-8.999804,-3.339911,15.14504,-44.85496,-34.61832
1.936909,-9.277532,-3.337517,21.34351,-37.39695,-21.29008
1.826776,-9.526528,-3.007117,21.49618,-30.41221,-8.709924
2.020706,-9.507375,-3.031059,24.83206,-35.06107,-8.450381
2.734178,-9.248801,-2.0231,33.87786,-35.01527,-2.732824
2.552219,-9.315839,-1.704672,33.54198,-29.56489,-1.381679
2.628834,-10.03649,-2.315193,28.24427,-35.16031,4.557252
2.166753,-9.203311,-1.651999,28.9313,-34.89313,3.076336
1.398214,-8.973468,-1.553837,23.71756,-33.90076,-8.160305
1.383849,-9.212888,-1.731008,19.53435,-42.99237,-6.732824
1.587356,-9.169792,-1.587356,16.21374,-48.73283,-1.854962
1.467646,-9.368511,-1.532289,10.83969,-48.54962,-0.9083969
1.63524,-9.586384,-1.443704,7.320611,-47.91603,-0.2366412
1.666364,-9.684546,-1.467646,6.19084,-44.06107,-2.923664
1.436521,-9.742006,-1.613692,5.954198,-41.94656,-5.290076
1.417367,-9.471462,-1.371878,7.534351,-38.73283,-8.992367
1.309628,-9.557653,-1.527501,8.977099,-38.9542,-9.534351
1.13964,-9.516952,-1.170765,12.9542,-42.80916,-10.9542
1.144428,-9.557653,-1.108515,4.274809,-39.58015,-5.480916
1.005565,-9.275137,-1.326388,-2.480916,-39.22137,-2.656489
0.5267244,-9.136273,-1.223437,-8.160305,-42.73283,-0.7938931
0.9433154,-9.246407,-1.448492,-8.007633,-48.1832,-3.51145
1.419762,-10.489,-1.853112,-14.37405,-26.22901,5.175572
1.371878,-10.16817,-1.922544,-9.38168,-30.25954,1.885496
2.082955,-9.701305,-1.776498,-7.938931,-14.50382,-2.435115
1.728614,-9.749189,-1.788469,-10.69466,4.206107,-3.465649
1.477222,-10.29746,-2.806004,-14.16031,0.5648855,-3.10687
1.383849,-10.21845,-1.824382,-1.572519,-4.08397,21.03053
0.5626374,-8.803479,-1.467646,-4.198473,7.847328,13.03053
1.987187,-9.193734,-2.44448,-4.725191,23.8855,-5.412214
1.170765,-10.05565,-2.798822,-16.78626,29.77863,-1.992366
1.199495,-9.753978,-2.868254,-12.54962,27.0916,5.80916
1.285686,-8.983045,-2.841918,-9.770992,18.37405,-2.801527
1.788469,-8.746018,-3.086126,-14.41985,19.8855,3.259542
1.491588,-8.916007,-3.177106,-14.62595,17.68702,24.48855
0.6991069,-9.153033,-3.148375,-17.25191,24.30534,34.96183
0.794875,-9.478644,-3.672705,-12.38168,26.61069,22.60305
1.16837,-9.622296,-4.055778,-1.236641,29.9313,17.90076
0.605733,-9.619903,-3.993528,0.648855,29.72519,19.05343
0.3184288,-9.299079,-3.766079,-2.435115,31.77863,18.48855
0.05985504,-8.829816,-3.430891,-6.541985,26.14504,9.030535
0.2657564,-9.25359,-3.529053,-5.366412,13.59542,4.923664
0.4860229,-9.500193,-3.79481,-7.664122,14.25191,8.870229
0.2011129,-9.349358,-3.502717,-6.419847,7.679389,5.022901
0.225055,-9.478644,-3.696647,-5.59542,12.67176,9.206107
-0.02633622,-9.514558,-3.596091,-3.694656,11.75572,8.152672
-0.1532289,-9.414001,-3.529053,-0.9083969,12.03817,5.580153
0.2418144,-9.435549,-3.730166,0.9923664,10.1145,7.748092
-0.2801216,-9.344569,-3.605668,2.099237,13.48855,4.992366
-0.1029507,-9.416395,-3.457227,2.175573,19.12977,5.389313
-0.04788403,-9.385271,-3.529053,3.0,25.80153,5.236641
-0.296881,-9.428367,-3.600879,2.541985,30.1145,2.206107
-0.2537854,-9.416395,-3.543418,2.908397,31.72519,-2.664122
0.2059013,-9.40203,-3.687071,2.10687,39.19847,-2.778626
-0.01436521,-9.720459,-3.536236,0.2366412,43.09924,-6.145038
0.4237737,-9.923966,-3.679888,-0.5725191,44.94656,-12.07634
0.4979939,-9.753978,-3.74932,-4.29771,32.35115,-24.93893
0.9433154,-9.0429,-3.406949,-1.946565,32.31298,-13.96183
1.134852,-8.817844,-3.172317,-2.335878,42.47328,-3.496183
1.055843,-9.234436,-3.16274,-5.954198,50.94656,-6.38168
2.358289,-9.320627,-3.49314,-5.442748,52.43512,-3.625954
2.516306,-9.528923,-3.04303,-1.78626,52.89313,4.587786
2.245761,-9.114726,-2.887407,-1.0,62.48855,7.282443
2.135628,-9.0429,-2.82037,-1.335878,60.16794,7.068702
2.387019,-9.323022,-2.6839,-3.007634,64.17558,11.32061
2.341529,-9.481039,-2.516306,-3.740458,65.12214,14.74046
2.224213,-9.368511,-2.214637,-0.1068702,63.54962,16.76336
1.939303,-9.263166,-2.0231,0.8167939,63.61832,15.41221
2.011129,-9.349358,-2.054225,-2.351145,70.35878,15.32061
2.070984,-9.349358,-1.953669,-1.099237,65.51908,15.48092
2.066196,-9.277532,-1.771709,-2.473282,67.38931,9.877863
1.96564,-9.576807,-1.719037,-3.625954,67.58778,8.679389
1.927332,-9.780313,-1.54426,-5.251908,61.83206,9.671756
1.66397,-9.655815,-1.391031,-5.419847,60.08397,10.83206
1.534683,-9.564836,-1.142034,-5.526718,55.8855,9.519084
1.556231,-9.581595,-1.134852,-4.061069,47.9084,7.206107
1.886631,-9.267955,-1.467646,-4.343512,43.9542,-1.083969
2.315193,-9.5385,-1.345541,-7.687023,47.0,-6.122138
1.786075,-9.715671,-1.42455,-5.725191,38.33588,-5.374046
1.640028,-9.595961,-1.115698,-4.343512,27.35114,0.6183206
1.527501,-9.275137,-0.8188169,-1.091603,17.30534,-0.6564885
1.692701,-9.488221,-0.5291186,-1.603053,9.343512,1.0
1.455675,-9.363723,-0.5386954,-5.465649,-0.1526718,7.129771
1.51553,-9.124303,-0.7781156,-8.015267,-1.900763,9.007633
1.723825,-9.121908,-0.6895301,-9.297709,-8.0,9.129771
2.059013,-9.323022,-1.173159,-11.30534,-10.23664,10.1374
2.140416,-9.342175,-1.170765,-14.07634,-9.19084,13.94656
1.853112,-9.624691,-2.231396,-19.24427,-10.74046,18.91603
1.450886,-10.07241,-2.006341,-15.93893,-26.79389,27.28244
1.278504,-9.768343,-2.346318,-15.84733,-33.61832,16.31298
1.893814,-9.323022,-2.384625,-20.63359,-17.23664,3.083969
1.520318,-9.332599,-2.801216,-26.49618,-13.0229,-1.083969
0.9121908,-9.574412,-3.011906,-33.19084,-10.83206,0.6793893
1.357512,-9.557653,-3.624821,-28.0229,-13.20611,-10.07634
1.90339,-9.514558,-3.684676,-19.71756,-0.3129771,-0.9541985
0.332794,-9.629479,-3.952827,-17.54962,1.51145,1.21374
0.6871359,-9.215282,-3.8403,-15.16794,19.49618,-1.938931
0.8475474,-8.99741,-4.256891,-14.55725,20.29008,-2.137405
0.629675,-8.956709,-4.352659,-11.46565,31.81679,5.961832
0.7445967,-9.358934,-4.683059,-8.435115,42.51145,13.40458
0.2633622,-9.184157,-4.920084,-4.335878,44.15267,16.41985
0.1221043,-8.870518,-4.718972,1.290076,46.48855,20.67939
0.3591303,-8.961497,-4.563348,6.496183,62.49618,28.27481
-0.1316811,-9.030929,-4.48434,8.687023,65.9771,22.35878
0.830788,-9.208099,-4.414908,12.09924,69.28244,23.09924
0.1268927,-9.16261,-4.398149,11.24428,57.29008,17.77099
2.288857,-9.938332,-2.841918,10.78626,69.22137,10.78626
0.617704,-8.643068,-2.743755,-1.78626,74.41985,-2.854962
2.363077,-9.109938,-1.984793,-3.564885,75.22137,9.091603
1.37906,-9.68694,-2.815581,-6.053435,77.49619,17.27481
1.268927,-9.531317,-2.315193,-7.961832,68.9771,17.0
1.206678,-9.366117,-2.06859,-7.816794,67.31298,20.8855
1.711854,-9.52174,-2.0231,-3.778626,62.48855,11.26718
2.0231,-9.742006,-2.217031,-8.519084,78.12977,7.358778
2.176329,-10.13226,-2.264915,-6.343512,75.27481,5.648855
2.276886,-9.91439,-2.140416,0.4656488,80.57252,-0.3816794
1.01993,-10.18254,-2.018312,-2.381679,75.47328,1.099237
1.024718,-10.13466,-1.711854,2.091603,64.32061,4.343512
0.2442086,-9.26556,-1.285686,4.770992,42.85496,5.740458
0.8954314,-8.796297,-1.029507,-5.152672,35.06107,0.648855
1.886631,-9.423578,-1.288081,-6.419847,35.48092,0.6030535
2.571373,-9.232041,-1.115698,-8.305344,33.42748,2.648855
2.719813,-9.404425,-1.410185,-14.20611,38.20611,9.427481
2.202666,-9.44752,-1.656788,-17.12214,32.14504,13.50382
1.980005,-9.306262,-1.723825,-19.45038,32.39695,10.1145
1.601721,-9.89763,-1.917756,-16.0229,25.96947,20.05343
0.5985504,-9.698911,-1.944092,-9.893129,4.946565,25.0687
1.192312,-9.337387,-1.752556,-3.687023,2.465649,14.67176
2.020706,-9.562442,-1.891419,-7.694656,15.94656,9.541985
1.764527,-9.947908,-2.094927,-8.984733,15.23664,14.27481
1.292869,-9.89763,-2.209848,-5.679389,13.60305,18.63359
0.9552865,-9.52174,-2.063802,-4.229008,10.26718,16.73282
1.426944,-9.409213,-2.226608,-2.717557,7.877862,6.664122
1.623269,-9.471462,-2.212242,-3.541985,14.81679,10.48092
1.292869,-9.442732,-2.322376,-4.045802,16.05343,14.51145
1.216254,-9.349358,-2.315193,-6.442748,21.18321,7.541985
1.374272,-9.334992,-2.592921,-10.64122,28.81679,4.61832
1.326388,-9.41879,-2.645593,-12.69466,34.28244,7.152672
0.9720459,-9.627085,-2.863465,-10.57252,35.47328,9.893129
1.041478,-9.555259,-3.313575,-6.022901,36.34351,8.687023
0.7038953,-9.270349,-3.280056,-3.801527,34.79389,10.84733
0.2705448,-9.160215,-3.39019,-3.603053,31.48855,11.68702
0.1747767,-9.557653,-3.754108,-5.129771,28.9313,14.54962
0.1077391,-9.662998,-3.689465,-6.076336,25.74809,11.90076
0.1412579,-9.356541,-3.572149,-9.076336,16.03053,6.931298
0.3184288,-9.246407,-3.256114,-9.664123,14.90076,3.503817
0.6727707,-9.466674,-3.22499,-9.053435,20.0229,5.091603
0.3998317,-9.706094,-3.174711,-7.015267,18.62595,3.633588
0.5913678,-9.595961,-3.136404,-4.21374,18.29771,-1.633588
0.4716577,-9.536105,-3.1795,-1.763359,15.54962,-2.274809
0.3280056,-9.277532,-3.325546,-6.045802,15.22137,-7.78626
0.7637503,-9.289502,-3.239355,-9.946565,18.96183,-9.702291
0.6823475,-9.210494,-3.325546,-12.43511,15.28244,-13.82443
0.8212111,-9.354146,-3.277662,-15.59542,11.8626,-17.89313
1.130063,-9.299079,-3.313575,-16.33588,18.8855,-17.0229
0.9935937,-9.634268,-3.260903,-14.40458,22.22137,-19.94657
1.520318,-9.703699,-3.177106,-6.564886,27.22137,-14.73282
1.37906,-9.993398,-3.816358,0.2977099,30.71756,-6.068702
1.620875,-9.557653,-3.560178,9.793893,17.82443,-5.167939
2.102109,-9.13388,-2.999935,13.43511,29.58015,3.564885
1.82917,-8.817844,-2.671929,17.01527,23.87786,5.351145
2.049437,-8.944737,-2.748544,17.30534,25.41985,8.511451
2.13084,-9.284714,-2.454057,17.60305,26.74046,12.61069
2.437297,-9.294291,-2.363077,15.0229,25.1145,21.05343
2.1883,-9.385271,-2.209848,13.83206,18.87786,17.0229
2.499547,-9.205706,-1.915361,10.91603,18.31298,11.55725
2.310405,-9.325416,-1.82917,7.587786,19.80916,10.22137
1.972822,-9.366117,-1.352724,1.824428,17.38168,5.717557
2.059013,-9.514558,-1.37906,-3.900763,14.45038,1.480916
1.90339,-9.763555,-1.546654,-5.59542,11.22901,0.8778625
1.649605,-9.787497,-1.031901,-8.305344,4.40458,-1.137405
1.474828,-9.634268,-1.031901,-7.251908,-0.03816794,-5.175572
1.482011,-9.569624,-0.878672,-7.832061,-6.175572,-9.564885
1.92015,-9.469068,-0.9744401,-6.816794,-12.14504,-10.92366
2.336741,-9.610326,-0.6512229,-4.633588,-11.68702,-3.427481
2.243367,-9.931149,-0.4141969,-3.160305,-11.9771,4.229008
2.229002,-9.744401,-1.788469,-11.92366,6.839694,6.839694
2.164358,-10.17057,-4.074931,-21.63359,-32.0229,5.503817
1.714248,-9.636662,-1.625663,7.534351,-29.54198,6.656488
1.723825,-8.279149,-2.676718,-21.41985,2.381679,3.664122
1.778892,-8.853758,-3.727772,-9.938931,-28.35114,-1.40458
2.717419,-8.793902,-3.519476,-11.18321,-2.122137,13.18321
1.434127,-9.397242,-3.371036,-9.633588,4.793893,20.74809
1.115698,-9.344569,-3.462016,-5.564886,0.5496183,16.25954
1.68073,-8.887277,-3.687071,-4.954198,12.74046,15.65649
1.312023,-9.153033,-3.754108,-1.030534,15.96947,12.76336
1.122881,-9.208099,-3.742137,0.6564885,14.9542,11.83206
1.039083,-9.062054,-3.79481,-1.137405,17.0229,11.25191
0.7996634,-8.913613,-3.952827,-4.274809,17.25191,10.67176
0.6272808,-9.052477,-3.945644,-5.862596,16.75573,12.39695
0.3351882,-9.248801,-4.000711,-6.580153,11.73282,7.931298
0.3950433,-9.234436,-4.039018,-8.473283,1.458015,3.48855
0.2059013,-9.19134,-3.399766,-5.152672,5.091603,9.343512
0.3351882,-9.258378,-3.6751,-5.076336,0.2442748,1.832061
0.7781156,-9.607931,-3.689465,-0.3282443,-0.3664122,3.984733
0.2537854,-9.737218,-3.198653,5.748092,-3.099237,-0.1526718
0.3303998,-9.706094,-3.574543,4.206107,-7.816794,-9.458015
1.47004,-9.258378,-3.296816,4.664122,13.33588,-7.59542
0.1316811,-9.880871,-3.289633,2.671756,1.145038,-8.900764
0.2537854,-9.129091,-3.165135,0.8244275,-7.824428,-9.328244
-0.07661445,-8.901642,-3.3447,-3.267176,-23.51145,-11.68702
0.9816227,-8.999804,-3.292027,-6.08397,-20.18321,-3.167939
0.4333505,-9.631873,-3.46441,-4.694656,-24.38931,-5.221374
0.296881,-9.483433,-3.507505,-4.89313,-27.85496,-13.75572
0.9074024,-9.148245,-3.545813,-4.396946,-27.37405,-12.21374
0.8523358,-9.138668,-3.488352,-3.351145,-23.42748,-7.603054
1.046266,-9.344569,-3.531447,-2.885496,-15.84733,-4.21374
1.223437,-9.449914,-3.586514,2.419847,-11.32061,-3.160305
1.18513,-9.241618,-3.739743,4.022901,-1.992366,0.0
1.012747,-9.267955,-3.653552,4.099236,4.580153,-0.03053435
0.9576807,-9.222465,-3.6751,1.503817,10.48855,0.8854962
0.890643,-9.131485,-3.713407,-1.732824,15.65649,0.1603053
0.8834604,-9.100361,-3.663129,-3.740458,16.08397,-2.045802
0.9911995,-9.220071,-3.622427,-4.114504,15.52672,-1.183206
0.7876924,-9.344569,-3.687071,-2.977099,16.57252,-2.038168
0.7278373,-9.344569,-3.476381,-2.954198,19.63359,-1.740458
0.878672,-9.299079,-3.560178,-0.3740458,21.48855,-1.748092
1.070208,-9.531317,-3.351882,2.442748,30.28244,7.740458
0.8523358,-9.390059,-3.416526,8.480916,35.19847,7.198473
0.8834604,-9.67018,-3.904943,9.19084,36.29008,4.633588
1.290475,-10.02452,-3.835511,6.625954,18.78626,-1.0
1.855506,-9.248801,-2.999935,7.007634,23.51908,7.08397
1.074997,-8.973468,-2.925714,9.419847,22.36641,-1.290076
1.13964,-9.100361,-2.724602,9.625955,18.22901,-0.0610687
1.201889,-9.251195,-2.918532,7.259542,13.45038,0.778626
1.391031,-9.433155,-2.731784,5.862596,13.0229,-1.862595
1.517924,-9.478644,-2.779668,6.122138,5.587786,-8.732824
1.774103,-9.299079,-2.652776,8.091603,-0.3740458,-9.824428
1.982399,-9.291897,-2.600103,10.76336,1.343511,-0.4732824
1.714248,-9.069236,-2.499547,13.38931,3.236641,1.877863
2.116474,-8.65025,-2.322376,15.26718,1.847328,-0.8091603
2.434903,-9.284714,-2.248155,13.30534,1.908397,-0.9694656
2.612074,-9.969456,-1.707066,9.549619,6.984733,0.4427481
2.322376,-10.31662,-1.975216,4.61832,8.625955,3.282443
1.893814,-9.425972,-1.795651,7.89313,5.229008,4.19084
1.33357,-8.868123,-1.211466,4.580153,4.458015,-6.687023
1.661576,-9.313444,-1.673547,1.480916,-4.389313,-8.351145
1.84593,-9.742006,-1.594538,2.618321,-16.0916,-4.839694
2.063802,-9.684546,-1.443704,2.694656,-21.01527,-11.9084
1.90339,-9.478644,-1.465251,2.320611,-23.26718,-10.51908
2.135628,-9.428367,-1.276109,2.496183,-24.61832,-10.45038
2.217031,-9.421184,-1.347936,1.282443,-28.37405,-8.320611
1.889025,-9.442732,-1.326388,3.038168,-34.78626,-8.664123
1.70946,-9.392453,-1.079785,0.3129771,-36.54198,-6.793893
1.446098,-9.576807,-1.347936,0.9541985,-44.03817,1.183206
1.503559,-9.363723,-1.465251,-4.938931,-44.89313,-1.89313
1.984793,-9.844957,-2.485181,-4.19084,-55.37405,-4.076336
2.037466,-9.5385,-1.374272,3.671756,-56.25954,11.08397
1.446098,-9.617508,-2.08535,-6.137404,-42.26717,15.12977
1.271321,-9.85214,-3.289633,-0.480916,-65.90839,7.099236
1.826776,-9.030929,-3.366248,-7.992366,-57.60305,-3.473282
1.089362,-8.880095,-3.457227,-18.86259,-59.34351,-7.961832
0.9241618,-8.844181,-3.921702,-20.99237,-70.07633,-18.09924
0.9648633,-8.41083,-4.007894,-36.14504,-62.29771,-32.60305
0.9672575,-8.595184,-4.522647,-37.07634,-68.72519,-44.37405
0.6895301,-9.083601,-4.709395,-31.25954,-74.96947,-36.38168
0.3591303,-9.059659,-5.102044,-20.01527,-83.35114,-52.64885
1.491588,-8.449138,-5.315128,-21.74809,-61.73283,-56.19847
2.633622,-8.841787,-6.962338,-5.396946,-50.39695,-35.74809
0.8379706,-8.66701,-5.353435,5.816794,-55.58779,-23.26718
0.9002198,-8.516175,-5.518635,8.389313,-41.72519,-22.9771
1.422156,-8.449138,-5.8634,14.77099,-33.26717,-21.51145
1.441309,-8.475474,-5.731719,16.74046,-26.07634,-15.1374
1.051055,-8.250419,-5.674258,19.49618,-27.58015,-11.00763
1.134852,-8.24563,-5.616797,17.44275,-28.64122,-12.35114
1.288081,-8.243237,-5.66947,17.20611,-22.62595,-10.35878
1.177947,-8.568848,-5.779603,18.91603,-24.58779,-12.20611
0.8978256,-8.566454,-5.604826,18.51145,-29.12977,-16.03817
1.216254,-8.461109,-5.058948,21.50382,-28.83206,-13.46565
1.374272,-8.985439,-4.659117,33.72519,-25.32825,-16.17557
1.733402,-9.205706,-4.8722,35.74046,-15.36641,-15.16031
1.479617,-9.050082,-4.60405,38.96947,-6.206107,-17.03053
1.161188,-8.781932,-4.412514,41.79389,-15.58015,-16.74046
0.4429273,-8.772355,-3.801992,41.43512,-34.34351,-11.31298
1.21386,-9.378088,-3.05979,35.38931,-40.50382,-15.76336
1.824382,-8.956709,-3.136404,26.87786,-30.61069,-10.64886
0.9169792,-9.076419,-2.841918,29.83969,-48.8168,-8.816793
1.493982,-9.157822,-2.633622,32.64122,-63.73283,-6.725191
1.125275,-9.437943,-2.047042,35.14504,-72.29771,-6.40458
2.090138,-9.07163,-2.212242,27.58779,-62.99237,-9.473283
1.915361,-9.473856,-1.922544,23.90076,-60.92366,-20.89313
2.703054,-10.03649,-1.970428,20.33588,-63.51908,-18.0687
2.901772,-9.758766,-1.924938,20.80153,-57.41221,-6.923664
1.66397,-9.428367,-1.503559,19.99237,-53.35878,-8.320611
1.793257,-8.968679,-1.625663,22.74809,-58.68702,-15.34351
2.197877,-8.860941,-1.762132,12.54198,-53.35115,-16.25191
2.372654,-9.220071,-1.649605,3.51145,-42.46565,-10.84733
2.731784,-9.586384,-1.359907,1.671756,-34.77099,-3.633588
2.466028,-9.698911,-1.33357,1.564886,-24.76336,4.007634
1.556231,-9.545682,-1.355118,2.755725,-26.46565,6.267176
1.388637,-9.200917,-1.113304,0.5877862,-22.8855,6.557252
1.134852,-9.220071,-1.280898,-3.282443,-27.63359,3.862595
1.448492,-9.440337,-1.242591,-6.740458,-26.0229,6.832061
1.431733,-9.804255,-1.132457,-9.908397,-21.16794,9.885496
1.292869,-10.16578,-1.249773,-18.03053,-13.32824,7.305344
2.090138,-10.79546,-2.889802,-16.22137,-18.60305,-7.480916
2.303222,-10.18493,-2.576161,-7.648855,-9.0,-3.946565
1.647211,-8.66701,-2.346318,-14.56489,0.6946565,-6.206107
1.328782,-8.532935,-2.712631,-15.14504,3.610687,-2.687023
1.917756,-9.155427,-3.423708,-17.80153,9.961832,6.053435
1.673547,-9.473856,-3.488352,-16.30534,14.0458,19.31298
1.053449,-9.284714,-3.411737,-8.648855,15.25191,19.16031
0.8475474,-9.07163,-3.205836,-6.984733,16.42748,16.78626
0.521936,-9.205706,-4.022259,-2.427481,14.83206,14.74046
0.1771709,-9.320627,-4.575319,-0.2137404,-2.854962,2.938931
0.830788,-9.356541,-4.395754,-0.4885496,0.1679389,7.793893
0.2944868,-9.157822,-3.976769,-4.0,-6.70229,5.091603
-0.1819593,-8.808268,-3.821146,-6.801527,-11.50382,-1.557252
0.3519476,-8.999804,-4.070143,-6.541985,-16.61069,-6.946565
0.5434838,-9.392453,-4.405331,-1.748092,-18.25191,-7.679389
0.7445967,-9.433155,-4.390966,1.580153,-10.0229,-6.0
0.2825158,-9.258378,-4.326323,5.946565,-5.656488,-6.251908
0.3399766,-9.409213,-3.952827,11.48855,0.7709923,-8.229008
0.09816227,-9.188946,-3.998317,14.87786,5.343512,-12.22901
0.03112462,-9.449914,-4.189853,19.68702,9.160305,-5.076336
-0.3016694,-9.212888,-3.955221,25.80916,16.75573,6.244275
-1.39582,-9.512163,-3.366248,34.74046,-4.396946,-5.656488
1.18513,-11.25754,-3.055001,15.66412,-20.05343,-41.79389
1.017536,-9.753978,-3.835511,2.687023,-7.351145,-32.36641
2.315193,-7.687782,-2.224213,21.39695,-40.80153,-17.70992
1.987187,-8.925584,-1.410185,15.29771,-13.14504,-14.45802
1.798046,-10.43154,-2.571373,20.58779,-37.38931,-24.80153
4.120421,-9.471462,-2.154782,22.13741,-29.24427,-10.58779
3.687071,-8.700529,-1.223437,24.35114,-21.55725,-9.259542
2.889802,-9.593566,-1.364695,22.0687,-24.48855,-22.35878
3.248932,-9.5385,-1.68073,28.87023,-31.96183,-14.84733
2.640805,-8.702923,-0.9552865,23.55725,-23.58779,-12.96183
2.116474,-9.138668,-0.9121908,18.68702,-28.83206,-12.93893
1.865083,-9.421184,-1.599327,23.36641,-46.00763,-7.572519
2.626439,-8.760384,-1.098939,26.83206,-56.0458,-1.534351
2.537854,-9.064447,-0.7661445,14.71756,-47.50382,-0.04580153
2.554613,-9.485827,-1.082179,9.106871,-46.8168,2.442748
3.117251,-9.564836,-0.9576807,10.01527,-39.58015,12.16031
2.674323,-9.536105,-0.890643,11.40458,-34.21374,15.74809
2.319981,-9.548077,-1.015141,10.8855,-30.17557,9.78626
1.534683,-9.241618,-0.5386954,7.526718,-30.9313,1.534351
1.577779,-9.141062,-0.5841852,0.9007633,-31.77863,-1.068702
2.003947,-9.107543,-0.8499416,-6.984733,-25.89313,-6.778626
2.334347,-9.289502,-0.7110779,-17.98473,-17.93893,-16.8855
3.028665,-9.5385,-1.154005,-16.60305,-13.0687,-9.977099
2.916138,-9.41879,-1.309628,-16.80916,-7.603054,-1.458015
2.703054,-9.315839,-1.448492,-21.90076,4.572519,-4.21374
2.731784,-8.803479,-1.989582,-26.96947,11.79389,-8.564885
3.222595,-9.303867,-1.529895,-23.25191,20.78626,3.015267
2.425326,-10.04846,-1.422156,-16.66412,29.96183,20.48092
1.788469,-10.25915,-2.118869,-29.18321,30.35114,13.22901
2.925714,-10.16817,-3.138798,-14.14504,24.39695,9.259542
1.984793,-9.624691,-2.106898,-4.648855,21.0916,14.00763
1.726219,-8.743625,-2.118869,-21.0687,27.01527,16.96947
2.276886,-9.01417,-3.184288,-19.75573,28.70229,13.64122
2.406173,-9.275137,-3.366248,-19.86259,30.60305,23.25191
1.936909,-9.021352,-3.047819,-17.64886,30.51908,23.9313
1.771709,-8.762778,-3.512294,-21.51908,37.0458,22.05343
1.757344,-8.999804,-4.010288,-21.46565,36.15267,23.91603
1.565808,-8.805874,-4.647145,-19.21374,30.9542,21.41985
1.369483,-8.947132,-4.623203,-20.19084,32.70229,18.10687
1.714248,-9.217676,-4.345476,-17.92366,43.73283,28.47328
0.8499416,-8.951921,-4.177882,-17.12214,40.51908,22.25191
0.8690952,-8.815451,-4.240131,-15.64886,42.23664,16.77099
1.106121,-9.179369,-4.1707,-15.54198,47.29771,19.46565
0.8690952,-9.155427,-4.627992,-11.45802,40.25954,18.58779
0.9864111,-9.148245,-4.441244,-4.053435,33.99237,11.58779
1.051055,-8.848969,-4.15394,-6.335878,44.45038,12.34351
0.5554548,-9.129091,-4.297592,-3.709924,41.16031,6.717557
0.8978256,-9.210494,-4.386178,-1.763359,48.96183,13.72519
0.5363012,-9.16261,-4.350265,2.564885,49.05344,15.90076
0.3184288,-9.129091,-4.321534,5.839694,51.85496,17.54198
0.2322376,-9.186552,-4.213795,11.12977,54.70992,17.80153
0.6751649,-9.504981,-4.065354,19.72519,58.01527,17.17557
0.9624691,-10.18733,-3.770868,21.03053,43.72519,-3.709924
2.521094,-9.562442,-3.318364,22.23664,66.31298,-5.633588
2.126051,-8.429984,-2.176329,17.45802,55.61832,-16.72519
2.049437,-9.588778,-2.082955,17.65649,52.03053,-17.51145
2.798822,-10.71405,-2.317587,10.09924,54.12214,-7.274809
3.459621,-9.67018,-1.596933,16.35878,52.31298,-11.51908
2.817975,-9.105149,-1.005565,18.31298,58.12977,-6.129771
1.290475,-8.937555,-0.1388637,12.85496,43.90076,-6.587786
2.138022,-8.475474,-0.1723825,1.755725,42.01527,-7.541985
2.157176,-8.695741,-0.03351882,-7.633588,26.96183,-3.351145
2.477999,-8.896853,0.2418144,-12.26718,19.22901,6.465649
2.341529,-8.78672,0.4764462,-15.8855,14.70229,6.908397
2.559402,-9.112331,0.2944868,-16.46565,5.175572,10.0916
2.839523,-8.827422,0.1005565,-22.25954,6.328244,7.801527
3.236961,-9.392453,0.2226608,-22.01527,7.59542,17.25191
2.48997,-9.105149,0.06464344,-20.96947,0.389313,22.63359
1.917756,-9.181764,0.2777274,-20.34351,2.931298,25.09924
2.669535,-9.033323,-0.842759,-34.48092,16.42748,22.48855
2.616863,-9.617508,-1.13964,-54.78626,37.25954,6.419847
3.86903,-11.48977,-4.498705,-50.83969,-1.931298,7.320611
3.265691,-10.31901,-2.147599,-10.58015,51.84733,21.1145
2.521094,-6.983886,-3.971981,-64.8168,97.44275,13.38168
2.176329,-8.528147,-5.48751,-8.854961,51.96183,15.45038
3.25372,-8.927979,-5.57849,-15.8626,99.09924,64.38168
-0.002394202,-9.153033,-5.631162,-11.90076,78.92367,41.17557
1.137246,-8.92319,-4.462792,-8.19084,76.56489,47.03817
0.3878607,-8.532935,-4.369418,-9.221375,62.98473,44.08397
0.4141969,-9.277532,-3.758897,-1.549618,47.59542,34.14504
1.367089,-9.330204,-3.761291,-6.755725,58.42748,30.34351
0.7374141,-9.502586,-3.639187,-3.320611,56.20611,28.87023
0.902614,-9.504981,-3.426103,-1.70229,54.66412,23.61832
0.6799533,-9.299079,-3.359065,-2.19084,56.53435,20.94657
0.5722142,-9.267955,-3.699042,-7.10687,43.71756,18.67175
-0.09816227,-9.330204,-3.167529,3.259542,40.49618,22.54198
-0.237026,-9.406818,-3.313575,1.526718,31.39695,20.77099
-0.4501099,-9.43076,-3.102885,-3.793893,27.64122,12.25954
-0.5147533,-9.605537,-3.131616,-1.564886,18.22137,9.114504
-0.4381389,-9.445126,-3.126827,1.419847,8.610687,4.496183
-0.3495534,-9.416395,-3.119645,1.175573,4.564886,-0.007633588
-0.7134721,-9.416395,-2.999935,-0.9312977,-1.343511,-0.832061
-0.6799533,-9.514558,-2.817975,2.022901,-3.572519,-3.572519
-0.8188169,-9.528923,-2.961627,3.992366,-6.694656,-13.36641
-0.2561796,-9.713276,-3.117251,3.274809,-3.839695,-28.0
0.2561796,-9.988609,-3.016694,6.832061,5.732824,-40.69466
1.39582,-11.03966,-3.904943,0.09160305,0.3664122,-62.56488
2.102109,-10.00776,-3.016694,18.78626,-9.977099,-54.76336
3.011906,-8.726865,-2.614468,29.45038,13.47328,-31.12214
1.56102,-8.971074,-2.557007,33.14504,7.045802,-29.16794
2.408567,-8.429984,-2.458845,32.77863,-6.679389,-20.96183
3.337517,-8.413225,-1.496376,27.68702,-9.152672,-5.526718
3.478775,-9.701305,-1.587356,16.12977,-7.480916,11.1374
3.20823,-9.107543,-1.781286,14.65649,-21.48855,6.358778
2.901772,-8.322245,-0.9457096,20.22901,-7.839694,3.259542
2.432509,-8.726865,-1.022324,5.694656,-9.419847,0.1374046
3.066972,-9.473856,-1.182736,5.198473,-13.9313,3.435115
1.335965,-9.32781,-0.03591302,1.938931,-21.0916,11.9771
2.746149,-8.848969,-1.697489,0.01526718,-23.18321,12.24428
1.900996,-8.635885,-1.338359,-2.030534,-28.9542,0.9312977
2.343924,-8.896853,-1.070208,-1.534351,-25.72519,4.526718
2.003947,-10.37408,-0.8858546,-3.076336,-26.00763,11.19847
2.219425,-10.80982,-1.170765,-2.854962,-29.68702,7.61832
2.401384,-9.646238,-0.8762778,-1.007634,-22.80916,3.931298
1.249773,-8.865729,-0.7781156,-6.549618,-17.0687,4.793893
0.6560113,-8.820239,-0.9457096,-15.45802,-15.83969,8.534351
1.37906,-9.457097,-2.499547,-38.35115,-18.12977,-17.12214
5.221754,-11.2743,-4.58729,-19.38931,-29.83969,-8.839695
2.99754,-10.39084,-0.8762778,-6.068702,-3.725191,26.79389
1.106121,-8.06846,-2.296039,-20.30534,17.41985,22.53435
0.6727707,-9.153033,-3.124433,-27.32825,7.198473,13.01527
2.681506,-9.323022,-3.450045,-16.0229,15.03053,17.83969
1.278504,-9.19134,-3.684676,-16.9542,14.69466,15.69466
0.8379706,-8.731653,-4.374207,-4.931298,-16.0229,-6.526718
2.336741,-9.112331,-4.707001,-5.847328,4.709924,6.473282
1.316811,-9.469068,-4.474763,-7.091603,15.0687,17.41985
0.2920926,-8.480263,-3.926491,-9.473283,5.007634,8.419847
0.8403648,-8.700529,-3.804387,-7.656488,7.977099,6.183206
1.072602,-9.3733,-4.232949,-4.175572,10.43511,6.412214
0.9193734,-9.507375,-4.173094,2.015267,9.022901,1.022901
0.9600749,-9.255983,-3.940856,3.732824,10.32061,-5.389313
0.6033388,-9.509769,-3.940856,2.839695,9.946565,-2.778626
0.2298434,-9.258378,-3.981557,3.435115,9.152672,-2.412214
0.3950433,-9.112331,-3.830723,4.580153,11.0,-0.09923664
0.2777274,-9.313444,-4.007894,8.358779,7.725191,5.687023
0.1508347,-9.291897,-3.830723,9.511451,7.221374,4.862596
0.2873042,-9.32781,-3.665523,13.61069,14.38931,4.679389
0.3399766,-9.832987,-3.552995,15.38168,14.34351,-4.137404
1.731008,-10.54167,-4.276044,5.183206,7.664122,-14.40458
1.115698,-9.552865,-3.411737,8.816793,-6.778626,-15.35114
1.367089,-8.647857,-2.6839,17.77863,2.770992,-5.801527
0.5171475,-9.303867,-2.547431,16.30534,6.961832,-10.25191
1.312023,-9.607931,-2.978387,11.74046,0.351145,-11.8626
2.152387,-9.07163,-2.851494,11.87023,-5.091603,-7.145038
2.633622,-8.884883,-2.387019,15.64886,-1.854962,-1.435114
2.142811,-8.868123,-1.87466,20.65649,-11.0229,-7.48855
2.681506,-9.097966,-1.37906,11.53435,3.824427,-1.022901
2.482787,-9.682152,-1.072602,4.114504,11.48092,7.198473
2.401384,-10.2831,-1.70946,-2.832061,5.687023,1.671756
2.257732,-9.44752,-1.39582,5.839694,3.358779,3.007634
1.505953,-9.165004,-1.161188,1.396947,1.503817,-2.526718
1.364695,-9.121908,-1.42455,-1.358779,-6.931298,-8.725191
2.066196,-8.930372,-1.441309,-8.709924,-4.580153,-5.694656
2.106898,-9.370906,-1.529895,-10.89313,-5.679389,-1.89313
1.283292,-9.653421,-1.314417,-11.9084,-7.938931,9.068703
0.6895301,-9.758766,-1.443704,-5.48855,-14.19084,17.37405
0.6847417,-9.696517,-1.522712,-1.557252,-17.70992,6.465649
2.008735,-10.57519,-2.607286,-21.50382,-13.07634,-19.16031
3.16274,-10.68293,-3.117251,4.137404,-11.91603,-3.320611
2.286463,-9.064447,-1.972822,1.587786,4.687023,-7.442748
1.613692,-8.566454,-2.15957,-6.030534,12.32824,-13.75572
2.817975,-8.983045,-2.592921,-11.21374,25.03053,-4.824428
2.628834,-9.28232,-2.597709,-12.70229,29.62595,4.91603
2.217031,-9.181764,-2.346318,-13.32824,32.08397,6.541985
2.073379,-8.858546,-2.96881,-19.72519,36.13741,4.992366
2.173935,-8.657434,-3.066972,-25.40458,37.79389,3.312977
2.037466,-8.65025,-3.481169,-26.60305,33.49618,-5.10687
2.238579,-9.040505,-4.498705,-21.31298,29.09924,-0.129771
2.221819,-10.11311,-4.381389,-16.16031,41.50382,17.96947
1.49877,-9.610326,-4.120421,-18.03053,52.64885,16.48855
1.58975,-8.300697,-4.003105,-16.03053,53.82443,14.75572
1.580173,-8.870518,-3.89776,-9.648855,60.50382,24.15267
1.510741,-9.308656,-3.854665,-0.7175572,70.25954,32.25191
1.565808,-9.543288,-4.34787,5.938931,52.28244,21.54198
1.982399,-9.548077,-3.928885,10.56489,60.31298,27.09924
1.223437,-8.717288,-3.035848,8.541985,50.35878,16.33588
1.960851,-9.26556,-2.466028,6.587786,60.61832,10.35878
1.565808,-9.55047,-2.844312,1.641221,46.28244,-4.08397
2.571373,-8.791509,-2.274492,3.015267,37.84733,-5.534351
2.48997,-8.76996,-1.757344,-0.961832,49.22901,-2.21374
1.766921,-9.780313,-1.261744,-7.748092,41.03053,1.572519
2.875436,-10.00537,-1.434127,-6.679389,42.99237,15.77863
2.664747,-9.753978,-0.9959879,-4.022901,46.13741,15.0
2.425326,-9.662998,-0.9720459,-1.335878,57.32824,5.129771
2.322376,-9.564836,-1.309628,0.9770992,54.38931,-0.6412213
2.094927,-9.387665,-1.149217,-1.641221,52.48092,5.526718
1.690306,-9.445126,-0.9433154,-0.7099237,44.68702,5.030534
1.63524,-9.627085,-0.9768343,1.137405,34.9542,0.8091603
1.805228,-9.603143,-0.9816227,2.129771,24.35878,-4.923664
2.317587,-9.337387,-0.8571242,-0.7862596,22.67175,-6.687023
2.432509,-9.169792,-0.6895301,-5.358778,26.34351,-8.908397
2.6839,-9.315839,-0.7038953,-7.801527,32.70229,-6.053435
2.418144,-9.361329,-0.8212111,-9.351145,33.1832,-6.022901
3.462016,-9.109938,-1.374272,-11.70992,30.13741,-1.183206
2.647987,-9.057265,-0.8762778,-13.16031,29.61832,6.412214
2.628834,-9.097966,-0.6200982,-15.06107,30.56489,8.900764
2.92332,-9.342175,-0.6751649,-18.80916,33.9313,11.15267
3.148375,-9.478644,-0.9792285,-19.82443,35.79389,8.732824
3.284845,-9.411607,-0.9696517,-21.01527,39.87786,13.68702
2.863465,-9.023746,-1.122881,-24.44275,45.1145,15.19847
2.341529,-9.294291,-0.9744401,-26.16794,47.8855,18.07634
1.980005,-9.52174,-0.938527,-25.80916,48.31298,21.30534
1.522712,-9.940725,-1.108515,-23.19084,40.41985,26.52672
1.695095,-9.955091,-1.165976,-18.69466,38.78626,16.70992
2.454057,-9.370906,-1.596933,-15.98473,50.01527,6.251908
2.300828,-9.406818,-1.790863,-17.54198,50.82443,8.183207
2.051831,-9.387665,-2.236184,-17.0229,56.86259,20.16031
1.759738,-9.3733,-2.15957,-12.37405,57.0,21.29008
2.272097,-9.440337,-2.63841,-12.32061,62.94656,19.22901
2.298434,-9.399636,-3.215413,-6.19084,69.84733,19.00763
1.833959,-9.13388,-3.500323,-5.839694,67.0458,9.778625
1.795651,-9.483433,-3.347094,-12.25954,72.67939,11.43511
1.496376,-9.564836,-3.430891,-16.26718,72.77863,12.61069
1.209072,-8.777143,-3.141193,-20.00763,64.8168,5.793893
1.371878,-9.196129,-2.868254,-22.77099,65.65649,7.351145
1.154005,-9.531317,-2.607286,-21.67175,64.52672,15.62595
0.9720459,-9.737218,-2.590526,-16.58015,53.32824,9.473283
1.134852,-9.780313,-2.41575,-10.1374,52.87023,8.480916
0.581791,-9.610326,-2.413355,-7.145038,38.29771,3.969466
-0.1699883,-9.167398,-2.035071,-6.740458,36.39695,3.51145
0.3615245,-9.600749,-2.051831,-3.274809,24.55725,1.824428
0.3136404,-9.847352,-2.030283,0.4885496,15.16794,-1.80916
0.4501099,-10.08917,-2.260126,2.664122,5.931298,-3.977099
0.4237737,-10.00537,-2.262521,5.847328,-1.755725,-10.26718
0.2657564,-10.15381,-2.303222,3.557252,-12.06107,-12.67176
0.3639187,-9.536105,-2.542642,3.40458,-23.22901,-15.51145
1.09415,-9.588778,-2.142811,-1.198473,-26.96947,-24.43511
1.01993,-9.794679,-2.317587,0.2977099,-30.51145,-25.74046
1.024718,-9.636662,-2.348712,9.59542,-51.62595,-27.89313
2.885013,-8.851364,-2.214637,12.19847,-32.93893,-6.21374
2.475605,-9.131485,-2.214637,11.35114,-26.8855,-1.900763
3.009511,-8.990228,-2.545036,18.64886,-30.69466,-0.4885496
3.871424,-8.231265,-2.485181,20.59542,-36.0458,-4.580153
3.682282,-9.41879,-1.252167,22.32825,-11.83206,5.419847
4.110844,-10.4483,-1.39582,9.328244,3.290076,11.82443
3.627216,-9.938332,-2.3535,15.08397,1.679389,15.15267
2.70066,-8.3821,-1.261744,14.25954,10.07634,3.366412
1.42455,-8.525752,-1.108515,-0.8167939,12.41221,-10.19084
2.322376,-9.255983,-0.9864111,-5.091603,-0.7251908,-8.664123
2.889802,-9.636662,-1.041478,-0.8244275,-0.2366412,2.053435
2.492364,-9.442732,-0.6703765,-8.030535,-0.09160305,-4.038168
2.425326,-9.287108,-0.770933,-9.412213,1.610687,-6.519084
2.288857,-8.968679,-0.7134721,-8.488549,0.6030535,-7.351145
2.348712,-9.054871,-0.6153098,-7.068702,-1.351145,-4.900764
2.190695,-9.528923,-0.03112462,-5.664122,-3.923664,12.50382
1.419762,-9.232041,0.2513912,-10.12214,-4.389313,8.633588
4.752491,-11.05882,-4.232949,-68.87786,2.89313,-46.35115
4.15394,-10.92474,-3.074155,21.19084,-18.38168,9.290076
3.160346,-7.13951,-1.201889,5.603054,39.08397,30.03817
1.68073,-7.019799,-2.568978,-27.51145,22.29008,7.694656
3.349488,-9.083601,-3.667917,-24.54198,38.35878,13.15267
2.066196,-9.469068,-3.691859,-19.45038,36.74809,21.82443
2.257732,-8.944737,-3.854665,-4.625954,8.580153,1.236641
3.155558,-9.825804,-4.015076,-9.175572,35.42748,16.16794
1.482011,-9.021352,-3.366248,-7.938931,27.91603,12.50382
1.891419,-8.746018,-3.107674,-6.931298,20.65649,9.106871
1.73819,-9.26556,-2.624045,-6.465649,28.89313,9.862596
1.987187,-9.504981,-2.877831,-1.458015,28.63359,7.412214
1.764527,-9.318233,-2.911349,0.832061,31.27481,3.160305
1.307234,-9.25359,-2.877831,1.244275,35.32061,7.007634
0.8762778,-9.442732,-2.707842,-0.2900764,30.89313,8.38168
0.7541735,-9.332599,-2.597709,0.1450382,24.59542,1.122137
0.8116343,-9.502586,-2.736573,1.259542,16.77099,-3.274809
0.9433154,-10.01495,-2.858677,1.099237,22.12214,12.56489
-0.4884171,-10.7763,-1.886631,-4.061069,16.48092,-3.984733
2.183512,-11.64061,-3.380613,-13.07634,-0.1374046,-27.37405
2.959233,-9.028535,-2.659958,-1.045802,-7.664122,-12.96947
2.722207,-7.687782,-1.82917,17.51145,-8.770992,-11.94656
2.171541,-8.53054,-1.522712,8.19084,6.175572,-12.91603
3.665523,-9.196129,-2.612074,3.396947,5.70229,-6.755725
4.486734,-8.583213,-2.604892,10.30534,-2.450382,-6.687023
3.622427,-8.726865,-1.316811,14.51908,1.312977,0.1679389
2.942474,-9.021352,-1.307234,12.33588,5.030534,10.45802
3.016694,-9.56723,-1.790863,8.648855,-8.954199,12.49618
3.28245,-8.664616,-1.407791,11.16794,-10.34351,3.954198
2.920926,-8.999804,-1.393425,7.419847,-11.44275,2.198473
2.631228,-9.277532,-1.527501,4.717557,-16.66412,2.549618
2.693477,-9.169792,-1.491588,-1.29771,-16.52672,2.534351
2.504335,-9.497798,-1.295263,-0.6870229,-22.49618,2.572519
2.348712,-9.40203,-1.326388,3.977099,-28.05343,2.564885
2.504335,-9.239224,-1.271321,-0.2671756,-22.87786,2.992366
1.723825,-9.306262,-1.146823,0.519084,-24.62595,5.412214
1.606509,-9.476251,-0.9433154,-1.473282,-25.66412,10.38168
1.54426,-9.52174,-0.914585,-1.137405,-20.75573,11.03817
1.484405,-9.514558,-0.9074024,0.9923664,-21.15267,9.251908
2.554613,-10.42435,-2.741361,-37.9542,-4.954198,-29.64122
4.501099,-11.39161,-5.269638,-1.099237,-23.80916,-22.12214
3.971981,-9.260772,-0.5913678,4.21374,10.0916,9.206107
1.575385,-7.893683,-1.968034,-12.43511,17.67939,1.480916
2.688689,-8.76996,-3.303998,-15.80916,14.56489,-8.129771
3.646369,-9.100361,-2.703054,-16.0458,41.9542,10.05344
2.432509,-9.232041,-2.557007,-10.87023,35.47328,13.45038
2.44448,-9.129091,-3.184288,-9.770992,43.0458,8.984733
2.470816,-8.731653,-3.292027,-8.870229,47.31298,16.39695
1.934515,-8.324639,-3.576937,-8.022901,43.57252,12.76336
2.319981,-9.543288,-3.991134,-10.54198,46.64885,16.61832
3.16274,-9.799467,-4.182671,-12.26718,61.87786,22.71756
2.001553,-8.880095,-3.330335,-13.59542,60.69466,14.33588
1.479617,-8.686164,-3.481169,-15.55725,62.51145,16.55725
1.156399,-9.220071,-3.507505,-16.99237,64.03817,13.58779
1.592144,-9.433155,-3.421314,-13.92366,66.14503,18.64886
1.807622,-9.368511,-3.46441,-13.23664,82.99236,37.69466
1.012747,-9.361329,-3.440468,-9.129771,70.33588,23.9313
1.599327,-9.756371,-3.203442,-7.396946,74.96947,23.67939
2.183512,-9.674969,-2.056619,-3.458015,68.09161,12.83206
2.06859,-8.983045,-2.300828,-5.633588,68.80153,1.167939
2.145205,-9.078813,-2.494758,-5.534351,50.85496,-10.21374
3.507505,-9.02614,-1.774103,-17.57252,86.32825,9.412213
2.461239,-9.370906,-1.711854,-19.43511,80.42748,6.282443
2.456451,-9.708488,-1.628057,-19.41221,80.80153,17.38931
1.673547,-9.435549,-1.558625,-17.73282,71.80153,17.52672
1.747767,-8.963891,-1.625663,-19.92366,70.56489,8.80916
1.491588,-9.246407,-1.233014,-19.53435,64.34351,10.59542
1.39582,-9.629479,-1.180341,-18.67939,58.59542,17.0
1.915361,-9.904813,-1.156399,-17.22137,51.41221,16.96183
2.138022,-9.727641,-1.175553,-16.0687,48.68702,13.53435
2.303222,-9.742006,-1.053449,-15.14504,49.87786,8.748092
2.588132,-9.911995,-1.089362,-13.53435,56.72519,7.129771
2.104503,-9.454702,-1.000776,-9.21374,51.9084,10.83969
1.11091,-9.244013,-1.18513,-25.48092,63.28244,-6.694656
2.456451,-9.694122,-2.545036,-30.36641,44.70992,-13.38168
1.951274,-10.91756,-1.254562,-3.664122,28.67939,24.30534
1.434127,-9.799467,-0.7876924,-10.0458,32.20611,21.19847
2.044648,-9.557653,-1.692701,-9.877863,32.79389,3.610687
2.731784,-9.306262,-1.766921,-12.0916,45.69466,1.343511
2.252944,-9.41879,-1.850718,-11.17557,46.60305,12.19084
2.08535,-9.222465,-2.181118,-3.755725,41.44275,20.90076
2.319981,-8.805874,-2.600103,-4.38168,49.74046,23.15267
1.872266,-8.930372,-3.138798,-6.671756,50.06107,27.67939
1.335965,-9.066842,-3.454833,-8.167939,46.67176,28.52672
1.517924,-9.555259,-3.780444,-9.229008,45.65649,25.48855
1.54426,-9.483433,-3.505111,-15.29008,52.73283,22.41985
0.1628057,-8.853758,-2.602497,-16.69466,46.41985,13.80153
1.194707,-9.284714,-2.724602,-18.69466,50.0,11.29008
1.146823,-9.579201,-2.89459,-17.61069,52.65649,11.54198
0.878672,-9.718064,-2.736573,-14.77099,47.1145,6.70229
0.557849,-9.610326,-2.829947,-11.26718,45.39695,10.20611
0.2059013,-9.464279,-2.600103,-11.35114,42.57252,11.51908
0.08858546,-9.572019,-2.930503,-15.71756,37.77099,7.969466
-0.3782839,-9.651027,-2.506729,-9.496183,29.13741,1.061069
0.2442086,-9.624691,-2.935291,-9.412213,32.29008,-0.4122138
0.1891419,-9.643845,-3.186682,-5.778626,29.64122,-4.763359
0.914585,-10.26873,-3.098097,-1.19084,27.31298,-11.25191
2.032677,-11.40119,-3.093309,-7.641222,29.41985,-14.08397
2.037466,-9.3733,-2.832341,1.480916,14.25954,-11.39695
2.252944,-8.178593,-2.403779,17.10687,14.80153,-6.984733
1.893814,-8.851364,-1.824382,7.145038,26.93893,-6.251908
3.071761,-9.011775,-2.477999,8.328244,18.05343,-2.839695
3.945644,-9.004593,-1.872266,11.22137,23.32825,3.427481
3.217807,-9.23683,-1.49877,12.94656,31.67939,8.961832
2.892196,-9.562442,-1.49877,5.648855,33.73283,9.038168
3.28245,-9.684546,-1.932121,10.18321,26.61832,6.549618
3.138798,-8.870518,-1.302446,11.28244,31.51145,-4.251908
2.770091,-9.004593,-1.156399,2.48855,35.84733,-8.244275
2.844312,-9.215282,-1.254562,-5.778626,33.03817,-3.358779
2.133234,-9.428367,-0.3112462,-8.877863,30.96947,-0.3664122
2.303222,-9.646238,-0.4309563,-9.893129,18.62595,14.15267
1.766921,-9.406818,-0.009576806,1.396947,13.96947,13.26718
1.750161,-8.834604,-0.4548983,-5.419847,9.374045,-7.022901
2.53546,-9.160215,-0.5003881,-7.954198,7.389313,-13.49618
2.813187,-9.995792,-0.1077391,-6.473282,7.038168,5.839694
1.831564,-9.600749,-0.01197101,-10.46565,2.450382,9.534351
1.826776,-9.25359,-0.06464344,-3.564885,-3.366412,6.465649
1.865083,-8.848969,0.2513912,-9.427481,-4.351145,4.740458
3.615245,-8.908825,-1.582567,-22.19847,0.4656488,-3.89313
4.831499,-11.18571,-3.033453,-36.67176,8.412213,-12.92366
3.962404,-10.30704,-1.443704,0.4122138,2.236641,8.297709
2.394202,-7.726089,-1.33357,-13.32824,39.66412,30.64122
1.007959,-9.516952,-3.842694,-13.66412,28.96183,25.73282
4.132392,-9.184157,-3.763685,-20.45038,49.61832,13.87023
1.857901,-9.818622,-3.275268,-18.57252,54.99237,29.23664
1.968034,-9.030929,-3.74932,-4.458015,28.80916,20.39695
2.327164,-9.105149,-3.746926,-5.732824,51.35878,15.77863
1.917756,-9.514558,-3.890578,-8.106871,56.48092,24.96947
1.405396,-9.050082,-2.906561,-9.328244,50.20611,25.29771
0.9983821,-9.124303,-2.657564,-5.557252,45.41985,20.80916
1.434127,-9.526528,-3.169923,-4.534351,43.47328,18.9313
1.115698,-9.595961,-2.693477,-3.633588,37.66412,14.64886
0.5267244,-9.782708,-2.461239,-2.641221,33.54198,8.053435
0.4764462,-9.603143,-2.463634,-1.954198,23.75573,10.44275
0.06943185,-9.40203,-1.963245,-3.473282,24.45038,4.274809
0.1699883,-9.569624,-2.391808,-3.580153,15.83969,-2.763359
0.1675941,-9.828198,-2.348712,-2.061069,4.854962,-3.59542
0.272939,-9.727641,-2.3535,-4.305344,-1.282443,-8.664123
0.1651999,-9.653421,-2.533065,-2.992366,-8.587787,-10.65649
0.4548983,-9.725247,-2.48997,-3.78626,-7.519084,-13.49618
0.1101333,-9.866506,-2.612074,0.9770992,-14.05344,-17.87786
0.5315128,-10.69969,-3.066972,-3.625954,-29.12214,-31.49618
1.54426,-9.528923,-2.48997,4.954198,-37.0,-28.23664
1.608904,-9.165004,-2.566584,9.664123,-30.36641,-27.0687
2.032677,-9.188946,-2.485181,15.9542,-33.1145,-21.14504
2.839523,-9.354146,-2.554613,18.91603,-21.12214,-4.961832
2.588132,-9.114726,-2.885013,23.58015,-30.32825,-4.564886
3.107674,-8.319851,-2.731784,30.84733,-20.51908,3.778626
3.038242,-9.157822,-1.867477,22.87786,-10.9084,3.450382
3.919308,-10.09635,-1.611298,14.87023,3.603053,20.9542
3.124433,-10.15141,-1.881843,14.96947,-2.900763,19.0229
2.164358,-8.932767,-1.223437,23.86259,1.160305,10.46565
1.719037,-9.0429,-1.072602,16.64886,-2.167939,-1.167939
1.249773,-9.555259,-0.9576807,24.29771,-13.29008,4.358778
1.39582,-9.248801,-0.2896984,8.740458,-16.56489,4.038168
1.211466,-9.07163,0.04788403,5.496183,-10.36641,-2.70229
2.252944,-9.437943,-1.628057,3.839695,-15.57252,-14.61832
2.193089,-9.770737,-0.3160346,1.648855,-12.72519,3.061069
1.271321,-10.33816,-0.2442086,7.793893,-24.69466,10.55725
0.8762778,-9.552865,0.01436521,7.763359,-33.75573,-0.4961832
1.611298,-9.172187,-0.01675941,9.763359,-31.44275,0.4122138
1.455675,-9.011775,-0.2825158,-0.4274809,-28.41221,-1.435114
1.501164,-9.143456,0.02633622,-11.49618,-26.0229,-11.48855
1.625663,-9.56723,-0.06224924,-18.83206,-23.32061,-11.38168
1.580173,-9.074024,-0.02873042,-27.37405,-22.0,-17.50382
3.375824,-10.44351,-4.072537,-73.39695,-16.96947,-34.22137
2.86586,-10.16339,-2.384625,-6.290076,-38.73283,-8.969465
1.857901,-8.307879,-0.8116343,-16.8855,-17.48855,-0.02290076
1.177947,-8.137892,-2.624045,-47.82443,-15.52672,-7.206107
2.794033,-9.325416,-3.608062,-33.29008,-23.77863,-25.51908
2.41575,-9.730036,-3.696647,-14.80916,-25.70992,-2.770992
2.106898,-9.011775,-4.434062,-11.96183,-42.15267,-14.9771
2.401384,-8.619126,-3.854665,-9.21374,-34.89313,-21.25954
2.262521,-8.724471,-4.254497,-10.98473,-32.53435,-15.61069
1.644816,-8.834604,-4.34787,-8.59542,-38.73283,-17.0687
1.750161,-8.829816,-4.560954,-2.419847,-41.23664,-11.67176
1.675941,-8.872911,-4.718972,1.89313,-43.05344,-9.465649
1.297657,-8.90643,-4.955997,6.175572,-54.9313,-18.30534
2.027889,-8.643068,-4.833893,12.93893,-57.34351,-20.86259
2.092532,-8.724471,-4.783615,19.50382,-55.09924,-21.47328
1.951274,-8.887277,-4.848258,24.57252,-56.86259,-24.42748
2.264915,-8.729259,-4.666299,28.45802,-54.86259,-22.31298
2.121263,-8.705317,-4.716578,32.64885,-54.48092,-24.68702
2.094927,-8.662222,-4.857835,34.9313,-53.90076,-26.31298
2.090138,-8.726865,-4.738125,41.03053,-60.37405,-24.67175
2.23379,-8.62152,-4.594473,41.87786,-59.80916,-21.80916
2.542642,-8.78672,-4.496311,44.9542,-56.36641,-12.80153
2.588132,-9.181764,-4.074931,45.28244,-53.90076,-6.946565
2.480393,-9.64145,-3.718195,49.94656,-54.42748,-1.198473
2.066196,-9.13388,-3.086126,42.59542,-49.03817,1.725191
1.084573,-8.578424,-2.686294,41.83969,-69.82442,-13.9771
1.146823,-9.251195,-1.805228,39.33588,-79.77863,-12.03817
2.011129,-10.54885,-1.386243,39.9313,-72.53435,-0.832061
1.80044,-11.00854,-1.61848,30.29008,-68.77863,-7.61832
1.891419,-9.763555,-0.9409212,44.13741,-83.73283,-8.832061
2.315193,-8.76996,-0.5506664,35.17557,-63.29008,-9.022901
1.628057,-9.375694,-0.5626374,33.35115,-60.30534,-14.39695
1.798046,-9.679757,-0.6607997,29.61832,-63.0229,-18.27481
2.051831,-9.366117,-0.8259995,24.80916,-63.34351,-18.83206
1.90339,-9.081207,-0.6224924,16.41985,-63.53435,-23.24427
2.391808,-8.920795,-0.6536171,5.900764,-63.27481,-34.16031
3.442862,-8.908825,-1.209072,1.351145,-55.70992,-37.9771
3.399766,-9.002198,-0.8403648,3.358779,-49.36641,-34.59542
3.62961,-8.75799,-0.8954314,0.4274809,-43.27481,-21.91603
3.615245,-8.50181,-0.6919243,-6.946565,-32.25191,-6.534351
3.591303,-8.683769,-0.6775591,-16.60305,-17.92366,-1.160305
4.163517,-9.227253,-0.8690952,-17.9542,-2.343511,8.015267
3.98874,-9.588778,-0.5410896,-16.77099,11.71756,23.30534
3.902549,-9.459491,-1.175553,-12.52672,22.80153,19.24427
3.888184,-9.246407,-1.302446,-11.9771,37.38931,18.80916
3.25372,-9.399636,-2.190695,-10.58779,37.0916,17.96947
2.978387,-9.308656,-1.458069,-2.40458,47.99237,36.77099
2.461239,-9.14585,-1.781286,-7.175572,56.0458,38.31298
2.509123,-9.263166,-2.341529,-3.549618,52.61069,32.48855
2.542642,-9.507375,-2.305616,-8.740458,76.54198,35.16794
1.580173,-9.873688,-2.243367,-10.56489,70.98473,23.80916
1.33357,-8.908825,-2.607286,-14.68702,58.29771,20.03053
0.4237737,-8.734048,-2.102109,-21.51908,55.16031,26.40458
0.2705448,-9.832987,-2.662352,-23.42748,61.35878,32.67176
0.03112462,-10.47703,-2.650381,-16.9542,52.58015,37.46565
-0.521936,-9.495404,-2.312799,-13.68702,34.35115,34.07634
-1.247379,-9.205706,-1.841141,-11.54198,11.40458,39.9084
-0.7278373,-10.4459,-1.963245,-1.366412,-15.57252,22.64122
-0.1173159,-10.90559,-1.805228,8.671756,-31.70992,0.6717557
-0.1580173,-9.440337,-2.403779,-8.328244,-28.85496,-5.526718
-1.16837,-9.983821,-2.418144,-3.541985,-62.08397,-18.93893
-1.237802,-9.734824,-2.70066,-4.122138,-59.64885,-14.75572
-1.06542,-9.900024,-2.786851,-2.763359,-66.1832,-27.22901
-0.9528923,-9.488221,-3.265691,-5.763359,-75.93893,-30.84733
-0.5075707,-9.416395,-3.809175,9.900764,-81.51908,-41.25954
-0.2035071,-9.076419,-3.82354,3.320611,-79.06107,-43.14504
-0.3064578,-9.167398,-4.146757,-2.198473,-83.36641,-41.14504
-0.4860229,-9.794679,-3.885789,7.847328,-89.31298,-41.21374
-0.1484405,-9.167398,-3.643975,6.343512,-80.89313,-29.70229
-0.6679823,-9.564836,-3.74932,10.60305,-85.51145,-42.58779
1.122881,-9.459491,-4.101267,3.519084,-75.68702,-41.07634
0.806846,-9.80665,-3.545813,16.94657,-75.65649,-38.69466
2.013524,-9.030929,-3.519476,15.41221,-69.0687,-15.22137
1.932121,-8.37013,-2.75812,24.73282,-77.90076,-9.977099
3.356671,-8.956709,-2.588132,21.45038,-67.91603,-13.08397
3.301604,-9.931149,-2.358289,9.259542,-52.54198,4.167939
3.150769,-11.1067,-3.356671,22.81679,-64.8168,18.66412
2.343924,-9.442732,-2.264915,42.82443,-55.0,13.33588
0.4261679,-8.085219,-1.268927,11.81679,-56.96947,-14.66412
0.9959879,-9.404425,-2.669535,30.1145,-83.98473,-26.78626
2.020706,-9.047688,-2.293645,16.20611,-72.65649,-11.48092
1.280898,-9.593566,-1.848324,8.931297,-72.8168,-11.20611
1.898602,-9.78989,-2.468422,4.557252,-69.66412,-20.07634
1.616086,-9.82341,-2.054225,3.534351,-63.76336,-15.58779
0.9935937,-9.394848,-2.027889,8.267176,-63.19084,-20.10687
1.249773,-9.076419,-1.881843,8.312977,-57.23664,-15.61832
1.87466,-8.899248,-1.975216,5.290076,-43.33588,-17.20611
2.047042,-9.018958,-2.042254,-0.2824428,-30.1145,-19.38168
1.091756,-9.720459,-1.587356,-1.51145,-30.57252,-11.84733
1.30484,-9.696517,-1.881843,-10.77863,-24.14504,-10.34351
3.083732,-10.67814,-4.419696,-49.43512,-8.015267,-23.38168
3.61285,-10.34056,-4.340688,-14.90076,-8.938931,-12.72519
2.149993,-8.714894,-0.9888053,2.045802,25.13741,17.72519
0.4788404,-7.541735,-2.30801,-21.80916,27.03053,11.41985
2.856283,-10.01734,-4.005499,-28.48092,35.64122,-0.832061
3.124433,-8.78672,-3.86903,-11.1374,50.54962,25.43511
1.108515,-8.92319,-4.158728,-3.480916,12.33588,-1.145038
3.129222,-9.720459,-4.230555,-8.106871,42.83969,20.69466
1.879448,-9.076419,-3.849876,-10.35114,57.15267,19.0916
1.723825,-8.106767,-3.232172,-11.53435,57.49618,5.900764
2.200271,-9.093178,-3.643975,-9.38168,71.07633,7.885496
1.821988,-9.579201,-3.770868,-5.854962,73.69466,28.33588
0.7972692,-9.181764,-3.603274,-9.496183,80.06107,32.57252
0.8259995,-8.820239,-3.481169,-2.916031,84.60305,36.67939
0.344765,-8.748413,-3.62961,-14.87023,99.57252,48.67939
-0.8714894,-8.875306,-3.809175,-34.72519,71.78626,45.72519
0.4046201,-10.27831,-3.763685,-3.320611,48.71756,25.03817
4.041412,-11.23838,-2.930503,-7.91603,68.73283,19.80916
1.33357,-10.27831,-4.900931,-45.16794,82.0687,31.63359
0.5913678,-10.42675,-3.780444,23.64122,31.16794,-5.40458
2.930503,-8.508993,-1.719037,44.16794,69.67175,5.70229
2.173935,-9.227253,-1.599327,-4.442748,67.61069,19.14504
1.491588,-9.44752,-1.891419,8.702291,67.25191,26.61069
0.248997,-9.847352,-1.371878,-0.5267176,50.13741,21.12977
1.101333,-9.445126,-1.429338,16.61069,42.87786,15.55725
2.008735,-9.749189,-1.486799,14.12214,49.15267,10.35878
1.295263,-9.85214,-1.132457,2.366412,40.69466,6.824428
1.625663,-9.998186,-1.340753,12.52672,40.38168,-3.824427
2.099715,-9.490616,-1.175553,5.145038,50.26717,-0.389313
1.673547,-9.564836,-1.237802,3.351145,51.60305,-5.419847
1.005565,-9.68694,-0.7972692,-1.755725,46.53435,-8.572519
1.120486,-9.68694,-0.5554548,-6.412214,40.82443,-6.80916
1.805228,-9.694122,-0.7685388,0.3969466,44.9084,-1.038168
1.046266,-9.744401,-0.3064578,4.862596,37.68702,0.351145
1.551443,-8.920795,0.1915361,-12.22137,34.76336,-3.503817
1.735796,-9.155427,-0.5506664,-32.45802,42.26717,3.877863
0.581791,-9.797073,-1.146823,-20.64886,24.75573,8.167939
0.9576807,-9.85214,-0.9720459,-2.0,15.28244,6.923664
1.486799,-9.143456,-0.3711013,-13.96947,17.45038,7.946565
1.977611,-9.409213,-0.6033388,-30.83206,34.22901,6.648855
1.73819,-10.5297,-1.821988,-52.64122,51.56488,5.877862
1.18513,-10.64462,-2.066196,-15.39695,32.14504,11.17557
1.233014,-10.12029,-2.035071,18.47328,34.56488,2.862595
1.692701,-8.619126,-1.182736,-10.18321,37.1145,-0.4503817
1.668759,-9.662998,-1.94888,-5.992366,35.52672,6.732824
1.671153,-9.617508,-2.896984,-19.23664,44.93893,13.26718
2.025495,-8.774749,-3.213019,-19.71756,46.90076,9.832061
1.915361,-8.695741,-3.541024,-20.01527,60.98473,11.21374
1.077391,-9.739613,-3.694253,-0.832061,51.89313,18.72519
0.8259995,-9.76116,-3.485958,-11.51145,45.8855,18.9771
0.8475474,-9.220071,-3.385401,-13.68702,44.55725,16.77863
0.1939303,-9.629479,-3.031059,-6.625954,33.27481,0.7938931
1.316811,-9.387665,-2.652776,-8.305344,39.03817,6.053435
1.836353,-9.488221,-2.96881,-6.198473,53.07634,11.36641
0.6584055,-9.713276,-2.786851,-6.076336,51.0229,11.56489
0.2896984,-9.801862,-2.844312,-1.755725,51.43512,6.839694
0.5195417,-9.502586,-2.726996,-10.22137,58.16031,6.51145
0.4285621,-9.627085,-2.547431,-10.38931,60.77863,14.00763
0.4884171,-9.119514,-2.841918,-22.0916,67.64122,26.74809
-0.7996634,-10.22803,-2.92332,18.37405,36.52672,28.70992
0.6967127,-11.05163,-2.248155,31.62595,26.78626,15.42748
2.200271,-9.344569,-2.190695,-16.67939,57.22137,15.83206
0.1508347,-9.390059,-2.422932,-24.60305,45.46565,1.030534
1.654393,-10.52491,-2.351106,13.16794,44.9313,8.59542
2.032677,-9.440337,-1.917756,4.442748,65.33588,33.84733
-0.6440403,-9.504981,-2.011129,21.35114,36.76336,18.60305
0.4453215,-9.038112,-1.118092,0.8015267,31.27481,8.236641
1.122881,-9.483433,-1.762132,-22.71756,42.57252,8.152672
0.9648633,-10.05804,-2.257732,-4.396946,34.16794,2.900763
1.137246,-9.981427,-2.152387,8.61832,33.61832,2.0
1.000776,-9.959879,-1.608904,10.83969,32.52672,-4.824428
0.6488287,-9.907207,-0.85473,-0.3587786,31.35878,-15.87786
0.9193734,-9.713276,-0.9481038,3.229008,18.58779,-12.61832
1.010353,-10.27591,-0.9816227,10.87786,12.29008,-7.877862
1.165976,-10.1179,-0.9864111,13.78626,8.938931,-9.526717
1.455675,-9.773131,-0.8475474,12.12977,14.21374,-11.19084
1.429338,-9.770737,-0.9504981,15.51908,13.0,-11.62595
1.601721,-9.569624,-1.072602,15.87023,17.19084,-16.61832
2.145205,-9.744401,-0.7278373,15.43511,25.27481,-17.23664
1.673547,-10.43393,-1.053449,5.366412,28.47328,-3.137405
0.9002198,-9.279925,-0.5003881,17.99237,10.39695,6.465649
1.098939,-8.978256,-0.1699883,10.35878,2.908397,0.351145
1.398214,-9.471462,-0.1340753,14.45802,-0.2061069,-8.137404
1.534683,-10.23761,-0.1197101,10.1145,3.19084,-0.389313
1.49877,-9.636662,0.3902549,0.4961832,2.19084,0.832061
1.620875,-10.23042,-0.2274492,23.61069,-4.648855,4.412214
1.505953,-9.445126,0.7422025,9.885496,-10.22901,-2.40458
1.951274,-9.018958,0.782904,-17.01527,2.221374,-8.587787
1.889025,-9.933543,0.4165911,-2.59542,1.267176,-5.549618
2.240973,-10.24958,0.3112462,24.08397,-4.961832,-3.778626
2.468422,-9.033323,1.055843,10.68702,4.770992,-0.480916
1.122881,-8.887277,1.086968,-7.061069,-0.9847328,4.587786
1.383849,-9.13388,0.4261679,-0.4274809,-11.56489,-3.572519
2.303222,-8.865729,0.5770026,-9.862596,-6.251908,2.755725
2.106898,-9.617508,0.2561796,-23.0229,-1.282443,6.458015
2.463634,-9.275137,0.01436521,-18.58015,1.572519,3.274809
2.099715,-9.442732,0.581791,-30.51908,10.94656,10.48855
2.121263,-9.287108,0.1843535,-23.87023,11.08397,7.358778
1.685518,-9.227253,0.3399766,-21.0,24.83969,15.29771
2.152387,-9.315839,0.3711013,-21.07634,23.37405,14.77099
2.516306,-9.172187,0.2322376,-27.43511,40.96947,12.84733
-2.628834,-7.601591,7.817069,-53.92366,29.42748,-3.603053
1.39582,-11.13543,0.1221043,-14.26718,45.20611,25.03817
0.6871359,-11.643,-1.225831,-89.70992,56.9084,-22.50382
3.672705,-9.157822,-2.691083,-15.58015,15.17557,19.96947
2.075773,-9.217676,-4.139575,35.30534,60.36641,12.9771
0.1580173,-5.829881,-1.656788,-64.79389,73.54198,-10.27481
2.41575,-10.00058,-4.41012,-45.16031,51.40458,-4.648855
2.545036,-9.809045,-4.929661,-10.99237,63.08397,48.8855
-0.09097966,-9.011775,-3.687071,-6.137404,41.0458,34.00763
0.1268927,-9.040505,-3.157952,-4.183206,29.56489,3.0
1.853112,-9.651027,-2.975993,-4.641222,37.82443,13.83969
0.8331822,-10.07959,-3.287239,10.64122,44.56488,29.36641
0.7565677,-9.220071,-2.987964,0.1603053,27.48092,1.19084
0.5985504,-9.378088,-2.715025,-3.312977,25.28244,-1.015267
0.1388637,-9.598354,-2.858677,0.648855,6.877862,10.93893
-0.04070143,-9.188946,-2.41575,-1.022901,-1.007634,4.748092
0.2657564,-9.43076,-2.626439,-2.312977,-4.335878,6.21374
-0.1508347,-9.660604,-2.477999,-1.290076,-13.59542,-1.312977
0.1364695,-9.92636,-2.726996,9.129771,-23.49618,-0.8625955
0.213084,-9.739613,-2.511518,4.603054,-22.45038,-6.091603
0.4620809,-9.742006,-2.748544,3.549618,-17.70992,-5.030534
-0.605733,-9.962274,-2.387019,2.732824,-17.74809,-2.099237
-0.8738836,-10.09156,-2.693477,-6.763359,-30.62595,-22.06107
0.5674258,-9.935937,-2.966416,-18.70229,-35.56488,-31.22901
1.687912,-9.830592,-3.177106,2.885496,-33.66412,-26.16794
1.017536,-9.107543,-2.626439,12.36641,-34.09924,-21.65649
1.855506,-9.088389,-2.600103,13.74809,-30.12977,-18.93893
2.377442,-9.41879,-3.332729,17.89313,-27.41221,-6.21374
2.856283,-8.762778,-3.009511,25.16794,-13.77863,-0.4580153
2.401384,-9.181764,-1.869872,23.53435,-8.267176,0.8549618
2.839523,-10.42435,-1.927332,10.35878,-4.10687,2.603053
2.602497,-10.6111,-2.39899,9.633588,0.7099237,7.389313
1.884237,-9.351752,-1.991976,39.9313,-5.389313,-0.7328244
1.75495,-8.135497,-0.4525041,7.526718,3.832061,-20.94657
1.726219,-9.220071,-1.182736,-2.351145,6.816794,-18.26718
2.116474,-9.428367,-1.331176,2.580153,-0.4580153,-8.969465
1.771709,-9.337387,-0.6272808,-1.603053,1.977099,-4.435114
2.72939,-9.090784,-2.456451,-4.251908,-7.251908,-5.664122
0.7398083,-9.902418,0.4596867,-0.1450382,-14.60305,16.64122
-0.5889736,-10.6135,-0.3782839,8.480916,-50.57252,24.49618
0.7972692,-9.646238,0.4070143,23.61069,-60.35115,-1.465649
3.799598,-9.126697,-2.590526,-21.64886,-33.9542,-16.63359
2.736573,-10.39084,-0.6895301,-44.21374,-26.0458,-24.32061
4.728549,-12.57674,-5.446809,-48.20611,-35.38931,-33.45802
2.387019,-9.445126,-3.790021,67.47328,-38.19847,-5.129771
1.429338,-5.729325,-1.376666,-41.99237,-0.9007633,-23.48092
2.48997,-8.561666,-4.010288,-30.13741,-3.358779,-31.06107
3.138798,-9.129091,-5.420473,-19.86259,9.305344,6.10687
1.467646,-9.82341,-5.0374,7.870229,-6.900764,12.83969
2.41575,-8.53054,-4.402937,-7.496183,12.84733,13.49618
1.197101,-8.839393,-4.165911,1.29771,1.083969,4.412214
2.384625,-9.727641,-3.785233,23.96947,5.748092,12.28244
2.487576,-9.112331,-3.325546,11.53435,9.641221,9.526717
2.106898,-9.428367,-3.505111,8.946565,11.82443,-0.4580153
1.972822,-8.99741,-3.442862,-0.6564885,10.67939,1.847328
1.534683,-8.932767,-3.476381,0.5801527,10.01527,13.30534
1.039083,-8.722076,-3.033453,-6.78626,4.480916,5.442748
0.7086837,-9.248801,-2.588132,-19.64886,-2.763359,1.282443
1.041478,-9.847352,-3.260903,-4.572519,-4.900764,13.41221
0.9840169,-9.770737,-3.244143,5.59542,-6.778626,18.64886
-0.1699883,-9.593566,-2.676718,4.435114,-8.748092,3.832061
0.3998317,-9.974244,-2.908955,18.9084,-19.27481,6.015267
0.1891419,-9.859323,-2.329558,14.75572,-24.92366,-6.61832
1.25935,-10.54646,-3.639187,0.7633588,-22.48855,-15.94656
0.9648633,-10.60631,-3.545813,16.26718,-34.38168,-6.854962
1.936909,-9.023746,-2.303222,27.27481,-37.35115,10.64886
-0.02633622,-8.384495,-1.68073,22.57252,-38.29771,6.633588
0.7613561,-8.688558,-1.218649,21.10687,-65.01527,-12.79389
2.724602,-8.796297,-2.310405,11.28244,-46.0229,-15.43511
2.274492,-9.830592,-2.470816,15.66412,-46.48855,-10.87023
1.482011,-10.78109,-2.121263,-1.625954,-43.48092,-1.48855
2.468422,-10.17536,-3.275268,14.73282,-63.12214,2.885496
1.625663,-8.822633,-1.982399,22.8855,-58.35878,-6.671756
0.7805098,-8.813056,-1.673547,-3.801527,-52.91603,-15.03053
1.877054,-9.703699,-1.860295,5.320611,-62.45038,-15.12977
1.56102,-9.586384,-1.551443,2.343511,-54.12214,-10.22901
0.7493851,-9.751583,-1.278504,5.198473,-64.29008,-8.267176
0.9768343,-9.533711,-1.223437,6.748092,-70.41222,-7.114504
1.25935,-9.847352,-1.221043,3.984733,-68.9771,-6.664122
0.7924808,-10.12508,-2.238579,-4.015267,-64.9313,-0.6946565
1.39582,-9.696517,-2.755726,4.679389,-76.34351,-8.854961
2.051831,-8.623915,-3.062184,-13.1374,-48.51908,-11.9084
0.4213795,-10.32619,-3.739743,-34.19084,-59.0,-18.55725
0.03830723,-9.320627,-3.892972,24.76336,-85.39695,-6.244275
1.486799,-7.987057,-3.895366,-11.36641,-60.31298,-30.13741
1.496376,-8.47308,-4.005499,-39.37405,-35.77099,-35.93893
-0.004788403,-10.0772,-4.869806,-4.366412,-59.15267,-0.3816794
-0.6607997,-9.160215,-3.919308,7.320611,-71.0,5.274809
0.3303998,-8.810662,-4.082114,-15.45038,-43.69466,-18.27481
0.6224924,-9.583989,-4.455609,-10.96183,-35.75573,-15.43511
0.09097966,-9.562442,-4.192247,5.091603,-42.59542,-8.984733
0.6679823,-8.980651,-4.110844,-0.6717557,-25.32825,-8.641221
0.4022259,-9.315839,-4.041412,7.053435,-21.58779,-4.763359
0.3160346,-9.406818,-4.041412,9.458015,-21.1145,0.03053435
-0.2657564,-9.337387,-4.098873,19.85496,-35.80153,-5.358778
-0.4094085,-9.234436,-4.07972,18.74809,-44.98473,-13.41221
-0.332794,-9.390059,-3.94325,15.67939,-45.73283,-20.09924
-0.7015011,-9.435549,-4.149151,20.79389,-55.49618,-30.38931
-0.3519476,-9.354146,-4.230555,22.41985,-59.90076,-32.08397
-0.07422025,-9.129091,-4.299986,24.29771,-61.44275,-29.01527
-0.3136404,-9.323022,-4.213795,23.20611,-65.46565,-33.74809
0.6991069,-9.583989,-3.598485,33.45038,-63.31298,-28.54962
1.18513,-9.574412,-2.916138,34.38931,-46.51908,-22.68702
-0.4022259,-9.224859,-2.932897,16.32061,-59.55725,-22.76336
-0.06464344,-9.622296,-2.772485,29.64122,-90.92367,-16.93893
1.697489,-8.839393,-2.494758,24.51145,-81.38931,-9.793893
1.233014,-8.983045,-1.599327,23.40458,-86.30534,-6.641222
1.572991,-9.56723,-1.817199,17.74809,-88.69466,-11.64886
1.960851,-10.39084,-1.893814,11.0,-91.07633,-14.03053
2.178724,-9.998186,-1.855506,21.74809,-93.229,-12.69466
1.594538,-9.351752,-1.522712,16.84733,-82.47328,-18.71756
0.782904,-9.500193,-1.778892,12.54198,-85.75572,-18.64122
1.364695,-9.433155,-2.135628,10.33588,-91.56489,-20.62595
2.300828,-9.555259,-2.166753,7.610687,-78.48092,-18.47328
1.912967,-9.986216,-2.075773,14.24428,-74.19847,-11.06107
1.704672,-9.569624,-1.620875,8.839695,-64.87023,-8.694656
1.338359,-9.306262,-1.403002,4.206107,-53.85496,-9.442748
1.297657,-9.287108,-1.537078,8.259542,-50.9313,-9.206107
1.261744,-9.181764,-1.13964,2.312977,-42.93893,-7.183206
1.11091,-9.488221,-1.089362,0.01526718,-35.22137,-12.71756
1.474828,-9.816227,-1.338359,-5.374046,-25.24427,-21.41985
1.527501,-9.825804,-1.221043,-9.267176,-22.86259,-23.43511
1.647211,-9.519346,-0.926556,-9.717557,-15.01527,-10.51145
0.5123591,-9.315839,-1.637634,-25.61069,-16.03053,-16.01527
4.314352,-10.50097,-3.921702,-47.05344,-1.549618,-48.31298
3.811569,-10.41957,-2.631228,-6.091603,23.42748,19.51145
1.244985,-8.475474,-2.861071,-1.938931,12.1145,21.62595
2.339135,-7.785944,-3.387795,-12.1374,27.36641,11.00763
2.662352,-8.221688,-4.161122,-17.9542,42.16031,8.519084
1.177947,-9.572019,-4.568137,-5.648855,14.98473,20.48855
2.018312,-9.576807,-4.129998,2.832061,21.25954,32.9313
1.340753,-8.817844,-3.53863,-4.282443,25.35114,17.80153
1.199495,-8.980651,-3.083732,2.648855,20.49618,17.42748
0.6631939,-9.366117,-3.268085,2.648855,11.19084,24.49618
0.4213795,-9.488221,-3.007117,4.412214,7.679389,17.70992
0.9481038,-9.239224,-3.189077,7.045802,10.70229,7.732824
0.2154782,-9.579201,-3.028665,3.419847,19.50382,3.923664
-0.04070143,-9.677363,-3.383007,7.305344,11.17557,3.175573
-0.7757214,-9.507375,-3.126827,7.427481,-6.152672,4.183206
-1.130063,-9.689334,-2.719813,-0.6335878,-19.74809,-4.229008
-0.7278373,-9.267955,-3.136404,-5.740458,-33.00763,-15.90076
0.3902549,-10.58955,-3.066972,-2.045802,-22.44275,-12.64886
1.034295,-10.41238,-3.351882,-12.42748,-30.39695,-23.44275
1.319205,-9.756371,-3.718195,18.30534,-39.92366,-9.725191
2.056619,-8.133103,-2.497152,24.19847,-34.08397,4.572519
1.726219,-9.222465,-2.346318,21.54962,-44.65649,-6.19084
2.99754,-9.995792,-2.662352,9.320611,-24.62595,5.091603
1.666364,-10.31662,-2.980781,21.67939,-43.63359,9.59542
1.814805,-9.004593,-2.1883,25.70992,-41.89313,-5.847328
1.367089,-9.315839,-2.252944,18.94657,-42.9771,-12.40458
1.898602,-9.452309,-2.013524,11.15267,-36.46565,-12.15267
1.683124,-9.648633,-1.972822,12.68702,-34.19847,-13.29008
1.434127,-9.325416,-1.513135,9.335877,-36.06107,-16.53435
1.436521,-9.062054,-1.467646,0.9083969,-31.25191,-23.51908
1.436521,-9.119514,-1.371878,-5.29771,-26.55725,-22.81679
1.249773,-9.083601,-1.625663,-3.572519,-32.24427,-18.42748
1.175553,-9.660604,-0.9911995,-7.694656,-28.67175,-3.862595
0.6248866,-9.947908,-0.8140285,-3.740458,-36.55725,10.28244
0.5770026,-9.220071,-0.926556,-12.55725,-34.47328,5.145038
3.904943,-10.56082,-3.689465,-52.72519,-5.564886,-36.25191
4.110844,-11.18092,-4.350265,-24.03817,6.38168,-0.832061
1.410185,-9.464279,-2.530671,-4.961832,2.679389,11.77863
0.7517793,-7.66384,-1.850718,-19.03817,21.79389,12.29008
2.08535,-8.611943,-3.145981,-30.61832,33.22901,6.244275
2.585738,-9.684546,-4.326323,-13.55725,29.9313,20.82443
1.493982,-8.657434,-4.010288,-0.1603053,25.74046,30.50382
1.182736,-8.750807,-4.635174,5.328244,18.89313,13.47328
2.899378,-9.26556,-5.090073,1.389313,39.0687,30.41985
1.163582,-9.097966,-4.560954,-4.183206,45.38168,31.22137
0.7015011,-8.300697,-3.928885,-5.61832,36.65649,20.16794
1.458069,-8.65025,-4.000711,-8.603053,43.41221,23.14504
1.391031,-9.07163,-4.161122,-4.419847,47.86259,29.29008
0.8283938,-9.284714,-4.359841,-4.343512,49.50382,23.9084
0.7493851,-9.349358,-4.122815,-3.679389,51.51908,21.58015
0.6871359,-9.301474,-3.763685,0.3282443,53.9084,22.0229
0.03830723,-9.085996,-3.643975,-7.931298,58.45038,15.54962
-0.1915361,-9.081207,-3.77805,-3.816794,46.84733,15.20611
-0.2513912,-9.299079,-3.380613,-2.656489,46.53435,20.61832
-0.225055,-9.643845,-3.292027,2.412214,47.77863,16.46565
-0.4548983,-9.44752,-3.351882,-3.465649,52.37405,11.41985
-0.4740519,-9.437943,-3.543418,-1.274809,48.12214,3.816794
0.02633622,-9.569624,-3.383007,3.801527,51.63359,15.41221
-0.4261679,-9.248801,-3.196259,7.114504,57.74046,16.77099
-0.3902549,-10.05804,-2.930503,9.534351,58.27481,4.38168
1.587356,-10.6925,-3.866636,-10.63359,67.50381,0.6335878
-1.137246,-9.931149,-2.973598,1.778626,58.9771,0.07633588
0.842759,-8.583213,-2.516306,11.41221,61.20611,9.022901
0.9672575,-8.63828,-2.195483,4.908397,68.64122,-0.2671756
2.025495,-9.23683,-2.530671,-4.068702,75.10687,3.80916
3.323152,-10.00776,-3.234566,2.648855,80.00764,16.38931
2.229002,-9.835381,-2.37026,6.984733,79.52672,20.16031
2.413355,-9.818622,-1.970428,7.030534,86.10687,4.770992
2.288857,-9.832987,-1.826776,6.480916,91.94656,0.4885496
2.193089,-9.49301,-1.63524,5.839694,88.48855,-9.129771
2.403779,-9.14585,-1.156399,0.02290076,94.60305,-7.351145
1.826776,-9.16261,-1.278504,-7.564886,85.34351,-4.70229
2.284068,-9.016563,-1.051055,-12.61069,83.80153,-0.6030535
1.896208,-9.107543,-0.6224924,-17.77099,76.82442,4.816794
1.640028,-9.3733,-0.1029507,-15.05344,58.08397,13.22901
1.742979,-9.184157,-0.1532289,-15.77099,59.84733,12.03053
1.702277,-9.337387,-0.1675941,-22.29771,51.70229,11.94656
1.671153,-9.423578,-0.3280056,-25.32825,43.09924,9.824428
1.872266,-9.713276,-0.6129156,-28.03053,37.03053,11.22901
1.285686,-9.691729,-0.3543419,-26.70229,30.29771,15.0458
0.1029507,-9.543288,0.04070143,-25.54198,25.34351,16.06107
1.462857,-10.70208,-1.460463,-47.89313,25.60305,0.2824428
3.502717,-10.7356,-2.430115,-10.9771,18.63359,19.08397
1.704672,-8.983045,-1.675941,-8.900764,33.74046,19.30534
2.044648,-8.590396,-2.406173,-26.37405,47.74046,15.03053
2.688689,-9.303867,-3.37343,-11.54198,57.76336,28.1145
1.51553,-9.02614,-4.237737,-14.38931,55.67176,22.29771
1.537078,-9.141062,-4.460398,-10.07634,49.33588,15.55725
2.990358,-9.220071,-4.34787,-12.54962,87.64886,37.10687
0.8595184,-9.119514,-3.912126,-11.93893,87.74809,27.22901
1.510741,-9.303867,-3.790021,-9.541985,95.30534,17.73282
1.558625,-9.696517,-3.521871,-8.641221,104.6183,22.89313
0.9935937,-9.476251,-3.476381,-5.778626,101.4733,22.84733
0.3806781,-9.361329,-3.05979,-3.236641,98.48092,20.48855
-0.06703765,-9.466674,-2.60968,-5.0,91.78626,21.47328
-0.1508347,-9.323022,-2.937685,-4.480916,71.9313,20.51908
-0.1819593,-10.21127,-2.549825,-1.877863,60.50382,17.68702
0.05506664,-9.964667,-2.276886,-4.656488,32.59542,9.290076
-0.3902549,-9.509769,-1.21386,-9.145039,30.69466,0.01526718
0.2561796,-10.05086,-1.824382,-15.64886,31.03053,-2.847328
-0.06703765,-9.801862,-2.027889,-11.19084,27.26718,-2.076336
-0.8283938,-9.682152,-1.836353,-8.816793,13.59542,0.8931297
-0.4022259,-9.255983,-1.848324,-11.85496,6.870229,-18.0687
0.629675,-9.830592,-2.209848,-10.48092,5.0,-19.38168
1.115698,-10.50815,-2.863465,-28.66412,-12.59542,-28.94657
2.394202,-9.607931,-3.246537,-8.801527,-21.89313,-27.81679
3.672705,-9.299079,-2.454057,12.67939,26.62595,16.94657
0.7206547,-9.433155,-3.004723,5.564886,18.31298,5.625954
2.061408,-8.616732,-3.363853,11.96947,-1.259542,-8.687023
3.775656,-8.154651,-3.117251,19.43511,12.61069,-2.664122
3.574543,-9.215282,-1.951274,4.458015,28.52672,5.900764
2.808398,-11.03009,-2.719813,1.534351,16.92366,13.27481
3.165135,-9.490616,-2.511518,32.16031,26.99237,15.57252
1.80044,-8.058883,-1.539472,12.05344,35.38931,-2.870229
1.175553,-9.085996,-1.383849,-1.129771,19.54198,-13.47328
2.284068,-9.181764,-1.45328,-0.05343511,15.80153,3.267176
1.716643,-9.255983,-0.926556,-5.633588,9.221375,3.274809
2.255338,-9.528923,-1.563414,-10.23664,5.427481,-1.229008
1.551443,-9.964667,-0.926556,-5.534351,-4.053435,-0.8244275
1.264138,-9.991004,-0.9935937,-3.725191,-23.50382,-11.54962
1.814805,-10.30943,-0.5674258,15.70992,-31.42748,-3.862595
0.8092402,-9.995792,-0.4309563,16.35878,-42.16794,-9.801527
1.436521,-9.203311,-0.3303998,6.671756,-50.96947,-15.25191
2.075773,-8.954314,-0.629675,-6.152672,-49.20611,-22.96947
3.275268,-9.854534,-2.006341,-38.07634,-37.8168,-44.57252
3.945644,-10.68293,-4.027047,0.7557252,-64.53435,-29.96947
2.243367,-8.865729,-1.831564,20.83206,-43.29008,-2.70229
1.910573,-6.785168,-2.94008,-16.51908,-39.92366,-19.61832
3.332729,-8.554482,-3.73256,-0.8473283,-31.59542,-22.19847
2.908955,-9.167398,-4.060566,-0.7862596,-16.61069,2.793893
2.542642,-9.105149,-4.424485,20.83206,-27.74809,11.51908
3.090914,-8.295909,-3.792415,11.92366,-6.541985,13.09924
2.674323,-8.930372,-4.388572,14.9084,-4.603054,16.35878
2.554613,-9.105149,-4.34787,20.61832,-6.160306,18.59542
2.669535,-9.239224,-4.187459,11.67176,2.221374,14.91603
2.257732,-9.217676,-3.890578,7.305344,3.732824,18.25954
1.522712,-8.956709,-3.416526,5.91603,-2.396947,12.21374
1.776498,-8.808268,-3.035848,-0.2977099,-2.671756,9.847328
1.527501,-8.760384,-2.63841,-8.198473,-2.358779,10.74046
1.733402,-8.930372,-3.040636,-7.503817,0.6717557,9.908397
1.142034,-9.107543,-2.949656,-11.44275,1.778626,5.946565
0.5123591,-9.325416,-2.815581,-13.14504,-6.679389,1.419847
0.8619126,-9.284714,-3.150769,-9.259542,-11.28244,3.480916
1.477222,-9.849746,-3.368642,-0.7557252,-11.47328,1.366412
1.740585,-9.878476,-3.325546,2.076336,6.412214,11.96947
1.031901,-10.35732,-3.320758,12.18321,16.38931,11.87023
0.4237737,-10.26873,-3.165135,20.34351,7.656488,4.91603
0.06943185,-9.888053,-3.294421,22.31298,2.931298,3.244275
-0.4764462,-8.911219,-2.964022,21.96947,-16.9313,-12.08397
-0.5793968,-7.869741,-3.280056,1.725191,-24.14504,-14.67176
-0.5889736,-8.947132,-3.852271,1.122137,-55.63359,-28.51145
0.6536171,-9.299079,-3.598485,13.35878,-77.48855,-29.32061
2.044648,-10.71884,-3.004723,22.74046,-68.21374,-34.38168
3.394978,-10.1155,-2.722207,18.03053,-31.34351,-12.80153
0.6224924,-9.667787,-1.96564,21.93893,-65.19847,-30.22901
2.964022,-9.260772,-1.661576,33.22137,-54.14504,-7.854962
3.069367,-9.016563,-1.21386,33.77099,-43.45802,-7.961832
3.562572,-9.552865,-1.221043,32.32061,-39.25191,-10.78626
3.663129,-9.595961,-1.319205,26.72519,-23.45038,-9.152672
2.501941,-9.507375,-0.332794,31.77099,-23.61832,-12.76336
3.426103,-9.054871,-0.6703765,28.62595,-12.46565,-14.25191
2.777274,-9.018958,-0.4118027,21.83969,-14.16031,-23.0
3.82354,-8.760384,-0.8523358,14.01527,-4.80916,-22.99237
2.885013,-8.973468,-0.2466028,10.22901,-2.618321,-17.45802
3.25372,-9.485827,-0.1508347,9.061069,-5.80916,-7.366412
2.777274,-9.404425,0.1987187,9.122137,-8.106871,-7.351145
2.396596,-9.481039,0.5746084,12.8626,-11.85496,-4.442748
2.336741,-9.050082,0.7134721,14.60305,-16.74809,-3.236641
2.94008,-8.927979,0.6679823,6.755725,-9.656488,-11.79389
3.093309,-9.370906,0.3519476,8.687023,-11.51908,-7.251908
3.050213,-9.294291,0.7757214,10.39695,-7.732824,8.473283
1.685518,-8.65025,1.13964,-5.755725,-17.76336,-8.671756
1.66397,-8.346188,1.154005,-10.91603,-14.79389,-11.84733
2.743755,-7.809886,-0.3974375,-42.34351,-31.46565,-10.91603
3.651158,-8.913613,0.4022259,2.977099,-35.06107,22.31298
3.361459,-9.083601,0.1005565,2.152672,-37.65649,8.022901
3.366248,-8.999804,0.01675941,-14.41221,-34.19847,7.793893
2.281674,-9.222465,-0.237026,2.419847,-49.9771,11.03817
3.32794,-8.26239,0.04309563,-0.9770992,-54.8855,15.76336
3.404555,-8.111555,0.3567361,-19.35114,-33.25954,10.0229
2.355895,-9.440337,-0.9002198,-27.76336,-49.98473,-3.259542
3.361459,-10.59434,-2.312799,-34.20611,-58.80916,-1.717557
3.244143,-11.6837,-3.292027,-31.62595,-43.50382,9.801527
1.563414,-11.00136,-4.627992,-1.122137,-59.73283,-3.419847
0.878672,-7.608773,-2.724602,6.0,-29.21374,-21.84733
0.4453215,-8.099585,-3.725378,-21.25191,-31.19084,-7.274809
0.01675941,-9.478644,-4.355053,15.58015,-54.70229,8.114504
0.3399766,-9.181764,-3.82354,10.10687,-55.47328,7.38168
0.2585738,-9.643845,-3.983952,13.71756,-62.19084,-7.664122
0.8762778,-9.512163,-3.995923,14.38168,-63.33588,-12.63359
0.4908113,-9.033323,-4.29041,18.29771,-72.58778,-15.70992
0.533907,-8.920795,-3.799598,22.72519,-77.45038,-13.54198
0.2705448,-9.229648,-3.79481,29.61069,-89.34351,-24.00763
0.5602432,-9.057265,-3.639187,46.9542,-95.67175,-12.74809
0.3519476,-9.512163,-3.397372,58.90076,-111.4275,-18.00763
1.37906,-9.23683,-4.010288,21.13741,-89.89313,-15.32061
1.043872,-10.4052,-4.503493,34.85496,-91.08397,-34.14504
0.9720459,-9.588778,-3.483563,16.85496,-87.42748,-31.74046
1.233014,-9.31105,-3.265691,24.37405,-85.34351,-31.96183
2.13084,-8.729259,-2.86586,15.83969,-64.94656,-27.77099
1.223437,-8.408437,-2.832341,12.94656,-74.66412,-26.20611
1.532289,-8.731653,-2.111686,19.50382,-78.8855,-1.694656
1.546654,-9.035717,-0.9002198,19.12977,-64.96947,9.702291
0.3471592,-9.832987,-0.7158663,14.07634,-73.51908,2.778626
1.01993,-10.66377,-1.383849,7.160306,-85.60305,-0.4427481
2.899378,-10.23282,-1.87466,12.80153,-75.09924,-11.24428
2.176329,-9.624691,-1.165976,19.64886,-57.03817,-18.90076
0.6775591,-9.68694,-1.079785,8.38168,-51.61832,-25.48855
1.929727,-9.694122,-2.908955,3.312977,-65.32825,-33.49618
2.63841,-9.356541,-2.454057,14.9313,-60.54198,-28.37405
3.083732,-8.698134,-1.946486,11.42748,-45.31298,-7.221374
2.274492,-8.614338,-1.556231,3.931298,-37.35115,-7.152672
2.047042,-8.908825,-1.819593,6.748092,-35.19084,-6.251908
2.600103,-9.734824,-1.328782,7.885496,-27.79389,27.69466
1.149217,-9.919178,-0.9169792,-6.854962,-11.28244,22.80916
0.8212111,-10.95826,-0.7110779,-19.05343,8.351145,-12.8855
1.661576,-11.30542,-1.237802,-17.80916,6.206107,-15.18321
1.649605,-10.23521,-0.9720459,-6.977099,6.290076,-6.70229
1.640028,-9.074024,-0.7278373,-7.312977,7.633588,-5.648855
2.202666,-8.444349,-0.7852982,-12.30534,20.65649,-5.862596
2.827552,-9.272743,-1.527501,-24.51908,40.67939,-7.961832
4.007894,-10.31662,-3.198653,-20.10687,46.68702,-0.8473283
2.245761,-10.50097,-3.038242,-14.32061,62.58015,23.79389
0.7924808,-9.258378,-3.038242,-10.48855,67.92367,34.09924
0.7876924,-7.283162,-3.711013,-7.10687,56.17557,15.67176
1.817199,-8.564059,-4.352659,-7.694656,33.05344,9.282443
2.892196,-9.507375,-4.450821,-14.27481,62.33588,52.48092
-0.04309563,-9.593566,-4.005499,-5.358778,34.56488,26.54962
1.704672,-8.018182,-2.937685,-3.259542,33.83206,25.41985
1.266533,-8.827422,-3.141193,-1.80916,27.55725,31.0458
0.5099649,-9.351752,-3.643975,-0.6335878,13.65649,28.70992
0.1675941,-9.437943,-3.402161,3.70229,-5.007634,17.84733
-0.1939303,-10.39084,-2.545036,11.77863,-11.19847,21.0229
-0.6200982,-10.34056,-2.533065,0.3816794,-4.122138,-4.175572
-0.1412579,-10.46984,-3.687071,-7.534351,-8.687023,-38.80916
0.6943185,-10.27591,-3.682282,-3.687023,-16.52672,-35.83206
0.1747767,-9.605537,-3.239355,-4.610687,-20.70992,-30.22901
0.2944868,-8.590396,-3.052607,-0.7251908,-31.63359,-30.37405
0.320823,-7.965509,-2.760514,-3.312977,-29.62595,-23.41221
-0.1723825,-8.061277,-2.801216,-2.198473,-36.73283,-21.19084
-0.237026,-8.559271,-2.94008,0.4885496,-44.50382,-16.68702
0.1460463,-10.30464,-3.004723,9.977099,-46.91603,-14.1145
1.206678,-12.01171,-4.659117,-25.16031,-55.85496,-49.98473
2.1883,-9.591172,-4.307169,35.08397,-77.87786,-37.35878
4.400543,-7.750031,-2.346318,37.44275,-35.50382,-15.83969
1.412579,-9.502586,-3.430891,20.99237,-48.16794,-14.0458
2.597709,-10.23521,-4.206613,36.34351,-77.54198,-7.748092
3.236961,-8.264784,-2.813187,48.58015,-51.1832,8.893129
0.5291186,-8.042124,-2.030283,25.41221,-70.19084,-19.33588
1.908179,-8.482656,-2.8491,21.17557,-69.86259,-22.03817
2.80361,-8.185776,-2.470816,25.54962,-69.05344,-22.07634
2.813187,-8.329428,-2.018312,24.78626,-63.42748,-21.48092
2.58095,-10.25437,-1.209072,11.44275,-36.30534,-12.47328
1.254562,-12.12903,-2.772485,1.473282,-37.27481,-9.389313
2.935291,-11.91594,-2.449268,14.72519,-43.70229,4.832061
2.181118,-9.866506,-1.924938,12.25954,-38.83969,-6.114504
1.043872,-8.542512,-2.152387,12.87786,-54.58779,-11.57252
1.309628,-7.256825,-1.405396,11.10687,-54.28244,-5.557252
1.386243,-6.852205,-1.089362,0.09923664,-47.35878,-9.374045
2.161964,-7.661446,-1.510741,-9.396947,-33.07634,-2.969466
1.944092,-9.564836,-1.623269,-13.18321,-28.35878,-1.89313
2.322376,-10.58237,-2.513912,-49.70229,-10.80916,-23.74046
5.425261,-13.2112,-6.351817,-33.75573,-9.603053,-29.90076
3.361459,-9.722853,-2.070984,9.21374,7.801527,5.198473
0.8331822,-6.50744,-2.284068,0.9160305,13.42748,4.40458
2.408567,-7.338228,-3.205836,-15.36641,18.54962,9.755725
4.168305,-9.902418,-3.945644,-19.35878,36.46565,32.21374
1.549049,-10.13944,-4.151546,4.977099,32.78626,28.48855
2.327164,-8.578424,-4.692636,-2.465649,23.99237,-1.122137
4.261679,-9.315839,-4.668694,-6.206107,63.28244,37.00763
0.902614,-8.264784,-4.091691,-20.0916,69.0458,39.0916
0.8858546,-7.508216,-3.792415,-13.28244,50.22901,31.29008
1.513135,-7.970297,-3.722984,-22.81679,57.9542,45.48855
1.936909,-9.052477,-4.577713,-19.86259,56.40458,60.79389
1.580173,-9.495404,-5.171476,15.44275,54.67176,68.05344
-0.2202666,-10.21127,-3.782839,18.91603,84.1832,47.48092
-1.118092,-10.14902,-4.278439,-20.57252,111.6412,26.64886
0.3375824,-10.23042,-4.817134,-7.29771,114.4504,26.24427
0.4716577,-8.990228,-4.314352,-5.0,129.1221,25.81679
0.225055,-7.771579,-3.270479,0.7175572,111.5725,13.40458
0.7613561,-9.07163,-3.143587,-9.21374,82.03817,7.122138
3.296816,-10.02452,-4.276044,-7.534351,103.542,21.74046
1.474828,-9.524135,-2.964022,-16.22901,106.4809,2.183206
1.853112,-10.01016,-2.765303,-19.19847,122.1069,19.66412
0.6560113,-10.51294,-3.107674,3.503817,114.3588,21.94657
1.309628,-9.588778,-1.862689,1.267176,110.9695,16.58779
2.391808,-8.676587,-2.3535,-3.045802,119.9008,19.72519
1.980005,-8.583213,-2.128445,15.67176,113.7863,22.0916
1.750161,-9.246407,-2.403779,-18.00763,128.3664,19.48855
-0.1340753,-10.14184,-1.853112,-6.961832,97.40458,25.28244
-0.4908113,-10.1562,-1.101333,0.7480916,96.62595,24.13741
-0.9289502,-10.41238,-0.6488287,-8.778625,63.96183,10.68702
0.6799533,-9.708488,-0.7422025,-9.068703,49.57252,-3.557252
0.9576807,-9.0429,-0.5434838,-20.42748,53.85496,2.580153
0.4453215,-9.313444,-0.7278373,-15.91603,33.34351,1.732824
1.690306,-9.380483,-0.9744401,-19.16794,31.43511,-0.6335878
1.364695,-10.01973,-0.9935937,-19.0458,28.53435,-7.053435
0.4501099,-10.9439,-1.244985,-23.1145,19.71756,-10.29771
0.4596867,-10.50336,-1.529895,-11.79389,-0.9694656,-8.587787
0.7086837,-9.370906,-1.33357,-6.396946,-10.83969,-12.85496
0.5506664,-8.3821,-1.130063,-16.70992,-7.648855,-21.50382
2.612074,-9.109938,-1.70946,-20.53435,-0.03816794,-8.083969
1.96564,-9.619903,-1.865083,-8.557252,-1.564886,14.25191
1.601721,-9.366117,-2.243367,-1.832061,-3.175573,23.0687
1.94888,-8.791509,-2.554613,-6.70229,5.389313,10.0687
2.037466,-9.02614,-3.141193,-1.923664,5.274809,6.503817
2.937685,-10.13466,-4.074931,-12.37405,34.13741,19.90076
1.606509,-9.890448,-4.469975,-12.30534,41.67939,20.60305
1.721431,-8.494628,-4.328717,-17.22137,45.03817,21.33588
1.49877,-7.814674,-4.125209,-25.73282,52.66412,31.48092
0.926556,-7.773973,-3.730166,-32.37405,51.83969,35.25954
1.216254,-9.074024,-3.780444,-33.1832,55.86259,52.12214
0.3543419,-10.09874,-4.362236,-14.49618,49.44275,60.35115
0.4141969,-9.718064,-3.634398,-4.725191,69.0458,37.94656
0.1651999,-9.904813,-4.027047,-17.93893,87.9771,16.9313
-0.4740519,-9.428367,-3.986346,-14.32824,84.25191,10.28244
-0.6464345,-9.143456,-3.881001,-8.778625,81.15267,5.70229
-0.2513912,-8.734048,-3.962404,-5.358778,77.45802,5.900764
-0.4860229,-9.153033,-3.976769,8.335877,71.57252,8.793893
-1.067814,-9.52174,-3.924097,14.33588,53.96947,13.96183
-0.4477157,-10.39323,-3.77805,22.22901,34.21374,0.7022901
0.9983821,-11.85848,-3.519476,18.25191,37.30534,-9.122137
2.106898,-11.25514,-3.976769,14.03053,19.64886,-14.35114
1.462857,-9.526528,-2.8491,36.51145,-31.8855,-21.23664
3.414132,-7.860164,-1.146823,48.87023,-16.42748,-4.732824
2.272097,-7.43639,-0.5171475,15.80916,-4.351145,-15.15267
2.231396,-8.288726,-2.209848,18.25191,-30.77863,-25.20611
3.325546,-8.171411,-1.546654,11.64122,-19.25954,-16.22137
2.44448,-8.884883,-1.242591,0.9389313,-10.87786,-9.045801
3.28245,-10.26634,-2.145205,-0.8167939,-5.419847,2.801527
2.255338,-11.33415,-1.604115,1.473282,-10.41985,11.64122
2.293645,-9.536105,-1.94888,13.29008,-32.22901,0.1603053
2.030283,-8.092402,-1.297657,15.12977,-33.67939,-10.91603
2.298434,-7.869741,-1.055843,0.4580153,-30.44275,-12.01527
3.038242,-8.693346,-0.8283938,-10.38931,-12.83969,7.045802
2.525883,-9.651027,-1.355118,-14.8855,0.351145,5.480916
2.274492,-10.28549,-0.9457096,-17.90076,8.305344,-0.6717557
1.996764,-10.41238,-1.288081,-7.10687,4.160306,-2.038168
1.707066,-9.847352,-1.221043,-8.374045,4.885496,-2.435115
2.755726,-9.368511,-3.442862,-28.60305,4.419847,-18.12214
4.27365,-9.67018,-3.026271,-17.51145,14.20611,-11.56489
2.461239,-9.205706,-1.237802,-9.0,23.66412,11.80916
1.51553,-8.128315,-2.616863,-36.60305,30.71756,22.59542
3.485958,-9.081207,-3.351882,-18.51145,48.26717,16.21374
2.468422,-8.961497,-3.172317,-26.80153,61.40458,26.03053
1.391031,-8.50181,-4.656722,-22.87786,35.67176,15.70229
2.901772,-9.634268,-4.99191,-7.167939,47.16794,32.0
2.269703,-8.975863,-4.577713,-13.61832,66.54962,38.59542
1.060631,-8.331821,-3.945644,-18.78626,55.96183,18.9542
1.556231,-8.434772,-4.074931,-22.59542,63.58015,17.86259
1.747767,-9.131485,-4.568137,-21.30534,64.66412,19.03053
1.549049,-9.325416,-4.625597,-12.9542,67.54962,23.25191
1.302446,-9.13388,-4.362236,-7.206107,77.1145,30.62595
1.173159,-8.719683,-4.43885,-7.145038,96.93893,43.89313
0.3112462,-9.540894,-4.232949,8.145039,82.52672,32.15267
2.23379,-9.49301,-3.921702,5.358778,104.1298,36.69466
1.280898,-10.20888,-2.987964,11.31298,84.19847,11.81679
2.882619,-9.73243,-3.29921,6.48855,102.5191,12.05344
1.886631,-9.414001,-2.717419,12.77099,68.68702,-4.022901
2.738967,-8.846576,-1.78368,8.167939,83.94656,2.732824
2.911349,-9.251195,-1.386243,11.77863,94.229,4.412214
2.20506,-9.895236,-1.68073,9.274809,93.09161,0.01526718
1.939303,-9.581595,-1.18513,17.59542,75.85497,-8.862596
2.217031,-9.14585,-0.4764462,8.702291,87.83206,-12.67176
1.96564,-9.543288,0.1268927,-2.381679,87.87023,-11.94656
1.587356,-9.753978,0.1077391,1.435114,70.03053,-4.946565
1.484405,-9.433155,0.3711013,-3.587786,54.9771,-4.816794
1.352724,-9.215282,0.3950433,-0.8931297,30.28244,-0.259542
1.565808,-8.975863,0.5913678,-2.419847,18.79389,-0.961832
1.963245,-9.572019,0.9576807,-12.03053,18.0458,-14.14504
2.229002,-10.04607,0.5506664,-11.82443,7.59542,-22.33588
2.693477,-9.370906,0.4046201,-10.93893,-0.4885496,-22.14504
3.20823,-8.791509,0.3782839,-13.61069,5.099236,-20.55725
2.985569,-8.870518,0.2226608,-15.83206,5.679389,-20.67175
3.948039,-9.050082,-0.1101333,-17.83206,10.38931,-18.12977
3.541024,-9.02614,-0.3878607,-20.64122,7.89313,-16.99237
3.007117,-8.693346,-0.2633622,-21.21374,-2.473282,-23.12977
3.416526,-8.341399,-0.08619126,-23.22901,-13.05344,-27.00763
3.004723,-8.789114,-0.07900865,-20.62595,-21.81679,-17.31298
3.857059,-8.619126,0.04788403,-21.12977,-29.40458,-2.618321
3.746926,-8.760384,-0.6248866,-25.24427,-18.51908,9.221375
3.924097,-9.01417,-1.096544,-25.0916,-11.0458,13.69466
4.15394,-9.354146,-1.651999,-22.37405,-5.557252,24.0916
3.837905,-9.11712,-1.927332,-18.61069,-6.648855,29.80153
3.857059,-8.640674,-1.752556,-19.03053,5.251908,32.56488
3.440468,-8.920795,-2.03986,-22.48092,5.549618,31.57252
3.687071,-8.99741,-2.559402,-30.41221,12.85496,28.46565
3.280056,-8.827422,-2.887407,-33.49618,17.45802,33.19084
2.63841,-8.552089,-2.952051,-42.22137,32.03817,41.66412
1.795651,-8.724471,-4.101267,-57.36641,38.82443,39.45802
1.458069,-9.07163,-4.546589,-47.03817,43.0229,38.79389
1.786075,-9.009381,-4.537012,-53.45038,67.53435,52.26717
1.831564,-9.28232,-5.583278,-27.98473,56.67939,60.68702
1.972822,-8.951921,-5.8634,-6.954198,64.98473,55.0916
1.78368,-8.377312,-5.363012,-10.06107,82.33588,53.45038
1.06542,-8.212111,-5.178658,-3.694656,83.16794,53.53435
0.4932055,-8.590396,-4.987122,-1.503817,84.51908,43.73283
0.07900865,-9.028535,-4.903325,2.068702,69.84733,35.51145
0.1915361,-9.196129,-4.616021,3.984733,59.77863,23.68702
0.4908113,-8.983045,-4.06296,-2.610687,58.41985,14.08397
-0.05027823,-9.308656,-4.043807,2.175573,57.63359,4.839694
0.007182605,-9.667787,-4.24492,11.53435,38.96183,2.312977
-0.01436521,-9.318233,-3.497929,12.32061,24.14504,-13.0458
1.242591,-9.428367,-4.668694,13.22901,21.72519,-23.31298
0.272939,-9.375694,-3.473987,8.221375,10.15267,-30.37405
0.8954314,-9.660604,-3.416526,21.25954,3.862595,-28.62595
1.331176,-9.981427,-3.189077,35.05344,5.175572,-16.29008
0.4333505,-10.4459,-2.719813,46.37405,-4.038168,-23.68702
1.192312,-11.18571,-2.659958,43.48855,-19.35878,-42.33588
1.84593,-9.742006,-2.846706,43.94656,-53.71756,-35.57252
2.791639,-7.297527,-2.621651,65.0229,-81.62595,-29.21374
3.452439,-7.560889,-0.1628057,60.21374,-47.70992,-14.48855
3.651158,-10.39802,-2.236184,28.39695,-74.51145,4.648855
4.869806,-9.665392,-2.185906,32.30534,-73.90076,6.923664
4.187459,-7.90326,-0.9097966,35.46565,-48.26717,-5.458015
2.202666,-8.034941,-0.7565677,24.38931,-57.99237,-5.030534
2.559402,-8.528147,-1.412579,14.14504,-72.12214,-6.770992
3.296816,-9.160215,-1.472434,15.23664,-73.86259,0.04580153
3.205836,-8.980651,-1.063026,12.1145,-77.20611,1.374046
3.1795,-8.971074,-1.276109,6.969466,-75.0229,4.427481
3.122039,-8.949526,-1.247379,7.465649,-75.42748,8.030535
3.5099,-8.707711,-1.041478,3.160305,-68.84733,11.24428
2.904167,-9.009381,-0.9481038,-3.290076,-69.65649,13.51145
3.519476,-8.762778,-1.568202,-13.16794,-57.09924,16.80153
3.763685,-8.975863,-2.952051,-29.71756,-41.87786,12.29771
3.021482,-9.471462,-8.805874,-221.6565,-15.07634,4.465649
0.6081272,-10.80264,-7.606379,36.67176,-88.9771,12.58779
2.930503,-6.442797,-4.510676,-46.60305,-14.0458,-24.32825
-0.557849,-7.570466,-5.549759,-74.94656,-35.62595,8.725191
-1.127669,-9.138668,-7.309498,-28.05343,-48.29771,0.03053435
0.8595184,-7.699753,-6.179435,-24.12977,-34.09924,-9.091603
-2.846706,-8.346188,-3.627216,-18.27481,-12.03053,-0.4580153
0.5506664,-8.226477,-6.58166,-3.366412,-16.76336,-5.396946
0.2346318,-7.81228,-6.291962,-5.572519,-5.183206,-23.27481
0.5075707,-7.800309,-6.639122,-6.015267,-4.320611,-26.58779
0.7924808,-7.831434,-6.80911,8.549619,-9.022901,-25.63359
0.938527,-7.721301,-6.447585,9.603053,-5.129771,-24.94657
0.8020576,-7.726089,-6.34224,12.21374,-3.977099,-22.74809
0.5530606,-7.891289,-6.318298,19.17557,-11.24428,-23.66412
1.058237,-8.274361,-6.098032,26.61832,-17.34351,-21.68702
1.312023,-7.94875,-6.248867,28.93893,-17.63359,-19.35878
1.098939,-8.145074,-6.220136,35.96947,-23.78626,-24.74809
1.127669,-7.991845,-6.100426,40.80916,-35.83206,-23.09924
0.8930372,-8.408437,-5.949591,56.31298,-52.85496,-28.24427
1.61848,-9.100361,-4.979939,69.01527,-64.76336,-25.81679
1.089362,-9.074024,-3.948039,58.80153,-67.65649,-19.58779
-0.3256114,-9.100361,-3.768473,50.85496,-93.46565,-37.03817
1.201889,-10.24718,-3.131616,64.69466,-117.084,-60.24427
2.528277,-9.279925,-2.949656,10.66412,-76.14503,-44.91603
1.527501,-9.557653,-2.75812,55.68702,-97.47328,-22.65649
1.254562,-8.78672,-1.881843,45.03053,-87.59542,-18.57252
1.446098,-9.141062,-2.260126,37.56488,-83.16031,-32.90076
1.795651,-9.224859,-2.717419,31.52672,-81.40458,-30.45802
2.293645,-9.284714,-2.351106,33.79389,-86.98473,-22.89313
2.511518,-9.124303,-2.035071,19.8855,-61.61832,-14.16031
1.934515,-9.093178,-2.011129,14.75572,-53.9084,-16.73282
2.530671,-9.066842,-1.975216,13.19084,-48.45802,-14.50382
2.37026,-9.057265,-2.063802,12.24428,-41.41985,-12.8855
2.559402,-8.968679,-2.032677,6.70229,-28.83969,-10.72519
2.291251,-9.004593,-1.414973,-6.038168,-16.26718,-1.78626
2.126051,-9.074024,-1.376666,-12.25191,-6.374046,4.732824
1.778892,-9.358934,-1.403002,-11.14504,-2.038168,10.78626
1.400608,-9.514558,-1.300052,-5.450382,-5.603054,17.14504
0.6871359,-9.045294,-1.944092,-23.96183,-7.198473,-1.496183
5.542577,-11.56399,-5.480328,-62.79389,16.61832,-45.17557
2.401384,-11.55681,-3.119645,-1.045802,-2.381679,26.98473
1.458069,-7.841011,-2.111686,0.2900764,9.916031,31.42748
0.8690952,-7.343017,-3.41892,-30.50382,8.389313,-0.3053435
3.074155,-8.999804,-4.414908,-14.01527,11.74046,11.41221
2.291251,-8.350976,-4.714183,-16.41221,14.29771,18.94657
1.841141,-9.006987,-4.754885,-5.679389,-6.70229,6.755725
3.445256,-8.937555,-4.730943,-6.29771,29.12977,31.63359
1.572991,-8.571242,-4.517859,-4.274809,32.47328,18.26718
2.080561,-8.401254,-4.496311,-6.48855,39.83969,11.07634
1.924938,-8.865729,-4.651934,-4.992366,40.69466,14.70229
1.980005,-8.949526,-4.496311,-5.725191,51.98473,21.42748
1.568202,-8.662222,-4.501099,-6.099236,62.12977,21.72519
1.218649,-8.858546,-4.321534,-7.427481,71.57252,24.64122
0.6775591,-8.975863,-4.378995,-10.81679,74.52672,22.71756
0.545878,-9.196129,-4.434062,-11.9771,78.90839,21.0458
0.2178724,-8.966286,-4.486734,-11.35878,73.86259,11.32824
0.4955997,-8.798691,-4.774038,-18.28244,84.69466,7.679389
0.1436521,-8.772355,-4.953603,-19.14504,81.93893,7.40458
0.6440403,-8.542512,-4.860229,-15.39695,79.9542,2.900763
5.286397,-10.93671,-3.909731,-0.6641222,68.55725,-57.22901
0.9457096,-8.755595,-3.040636,-37.67939,98.60305,-37.0916
6.619968,-7.568071,-3.040636,-17.70229,54.32824,-17.08397
3.416526,-8.92319,-1.833959,-19.25954,85.34351,20.19847
2.817975,-8.504205,-1.654393,-34.98473,68.55725,7.679389
4.448427,-8.39886,-2.612074,-26.62595,66.78626,17.98473
3.639187,-8.054094,-1.774103,-24.51145,55.34351,21.53435
4.197036,-8.051701,-2.020706,-33.0458,60.33588,19.61069
3.91452,-8.51857,-2.497152,-42.15267,66.84733,26.0916
3.890578,-8.47308,-2.559402,-39.44275,60.26717,23.64122
4.225766,-8.456321,-2.561796,-40.68702,68.06107,25.74809
3.62961,-8.520964,-3.311181,-36.41985,63.80916,28.73282
3.560178,-8.434772,-2.736573,-35.68702,63.61069,41.72519
3.361459,-8.384495,-2.870648,-31.72519,59.34351,52.87023
2.971204,-8.772355,-2.829947,-34.1145,55.96183,55.85496
3.069367,-9.495404,-3.471592,-30.24427,57.16794,57.09924
2.118869,-9.847352,-3.177106,-14.20611,46.29771,72.41222
1.400608,-9.662998,-3.227384,10.58015,23.29008,63.08397
2.054225,-8.839393,-2.827552,6.068702,26.31298,37.51145
2.3535,-8.813056,-2.887407,0.1755725,34.37405,35.85496
1.843535,-8.813056,-3.100491,5.519084,29.23664,34.96947
1.623269,-8.92319,-2.944868,10.58779,26.54962,33.26717
1.106121,-9.490616,-2.877831,16.51145,29.12977,29.54198
0.8978256,-10.41957,-4.314352,28.23664,18.17557,32.00763
-0.1197101,-9.49301,-2.911349,35.96183,7.007634,14.90076
0.09576806,-9.442732,-2.516306,12.64122,24.83969,9.206107
-0.5602432,-10.00776,-3.040636,6.442748,8.015267,8.465649
-0.5530606,-9.749189,-2.770091,8.473283,-13.80916,6.320611
0.3998317,-9.126697,-2.236184,-2.557252,-13.22901,-1.549618
0.3878607,-9.121908,-2.379837,-13.03053,-13.20611,-14.48092
0.9050082,-9.315839,-2.63841,-7.854962,-21.62595,-17.64886
0.9744401,-9.703699,-2.296039,-4.541985,-24.39695,-14.44275
0.1939303,-9.959879,-2.461239,-9.977099,-36.58015,-18.8855
0.4261679,-9.593566,-2.94008,-14.0,-46.58779,-34.24427
0.6464345,-9.308656,-2.571373,-11.99237,-53.54198,-41.35878
0.7781156,-9.301474,-2.410961,-14.52672,-59.26717,-57.12214
1.285686,-9.667787,-2.916138,-11.01527,-57.55725,-59.48855
1.417367,-9.68694,-3.921702,-5.725191,-53.99237,-49.68702
2.41575,-9.636662,-3.720589,9.152672,-44.29008,-32.35115
1.857901,-9.258378,-3.411737,10.91603,-29.70992,-17.40458
1.841141,-8.724471,-3.708618,13.67939,-27.29771,-18.56489
3.155558,-8.48984,-3.866636,19.51145,-30.09924,-15.76336
3.090914,-9.279925,-3.622427,17.73282,-20.24427,-15.26718
3.083732,-9.088389,-3.394978,11.51145,-14.74809,-13.77863
2.913743,-8.207323,-3.057395,9.709924,-18.85496,-23.53435
3.603274,-7.797915,-3.502717,-1.21374,-8.503817,-32.96183
3.270479,-7.718906,-3.560178,-28.47328,-7.244275,-40.74809
4.141969,-7.788338,-3.924097,-37.14504,-1.885496,-52.23664
4.264073,-7.592013,-3.32794,-28.8855,3.687023,-58.43512
4.316746,-8.611943,-2.662352,-26.80916,10.67939,-42.87786
4.106056,-6.596025,-2.418144,-41.91603,10.60305,-26.57252
3.126827,-7.462727,-3.763685,-44.98473,24.27481,-6.526718
3.294421,-7.771579,-4.019865,-0.2671756,-2.923664,-5.282443
2.693477,-5.427655,-3.019088,-19.94657,32.26717,5.274809
2.92332,-5.942409,-2.815581,-20.70229,35.51908,5.465649
4.266468,-6.490681,-3.785233,11.60305,19.58015,35.09924
4.271256,-7.570466,-3.711013,8.862596,7.053435,39.93893
4.132392,-7.182605,-4.237737,22.26718,7.870229,16.0
