ax,ay,az,gx,gy,gz
-10.04368,-1.194707,3.993528,-17.25954,-24.26718,-30.39695
-9.56723,-1.194707,3.591303,-19.49618,12.90076,11.8855
-9.916783,-1.570596,-0.08619126,-34.33588,99.67175,-0.007633588
-10.51055,-0.1771709,-1.359907,11.0229,-25.92366,8.106871
-9.205706,-2.537854,-1.331176,30.41985,-8.267176,-27.44275
-11.01812,-2.245761,0.02154782,33.66412,10.28244,11.69466
-9.109938,-1.584962,1.704672,25.99237,-15.67176,-8.862596
-9.114726,-1.786075,2.47321,33.12977,-5.770992,9.908397
-11.91594,-2.1883,2.181118,20.9084,-21.9084,5.343512
-7.979874,-0.5913678,0.5506664,-3.114504,12.01527,41.50382
-10.97263,-0.04788403,-1.244985,13.49618,12.67176,-46.41985
-8.202535,-0.3280056,1.209072,37.09924,-19.98473,9.916031
-11.07558,-1.173159,2.276886,66.41222,-8.030535,-29.57252
-9.773131,-0.3256114,1.702277,78.0,35.51145,-9.152672
-9.457097,-0.6991069,0.2154782,87.07633,47.79389,1.763359
-9.229648,-1.910573,1.173159,79.42748,-60.86259,-53.98473
-10.54646,-2.449268,1.968034,86.96183,15.48092,-17.07634
-9.512163,-1.776498,2.070984,35.56488,30.58779,-45.17557
-9.878476,-2.243367,1.826776,21.15267,4.854962,-9.725191
-9.610326,-2.499547,2.104503,-13.90076,18.79389,-1.580153
-9.272743,-2.899378,0.902614,-15.32061,5.305344,19.45038
-9.088389,-3.004723,0.9313444,-22.77099,-29.46565,18.08397
-10.38844,-1.601721,1.508347,-51.87786,24.48092,-0.6259542
-10.71166,-0.2154782,1.78368,-70.03817,25.0458,9.083969
-9.962274,-0.08379706,0.344765,-58.25191,-37.96947,22.43511
-9.337387,-1.11091,1.206678,-81.771,-80.87786,25.28244
-9.066842,-1.956063,1.549049,-67.57252,-22.82443,-7.015267
-9.61272,-2.269703,1.441309,-42.29771,8.267176,16.23664
-8.92319,-2.659958,1.568202,-16.89313,-5.641222,-17.0916
-9.964667,-2.533065,2.276886,-6.740458,39.59542,9.022901
-12.81377,-2.631228,3.241749,-27.0458,30.16794,19.98473
-7.924808,-2.157176,2.588132,-5.061069,-28.9771,-25.93893
-10.28788,-3.438074,2.044648,28.58015,-3.129771,16.28244
-9.119514,-2.779668,1.711854,34.89313,12.48855,-10.38931
-9.694122,-2.703054,1.225831,52.16031,8.099236,2.412214
-9.883265,-2.389413,1.256956,38.08397,14.74809,-5.0
-9.64145,-0.5243302,0.6512229,3.503817,45.21374,8.603053
-11.2719,0.4429273,0.8978256,-16.15267,18.17557,23.41985
-9.818622,0.1915361,1.216254,-43.57252,-39.16794,10.22137
-9.995792,0.03351882,1.446098,-51.55725,-5.29771,17.67939
-9.710882,-0.5482722,1.855506,-44.50382,-28.46565,-12.43511
-9.849746,-0.842759,2.329558,-30.25191,-26.77863,-2.984733
-12.30141,-1.92015,1.872266,-20.71756,-0.3740458,-19.25954
-9.093178,-0.4812346,2.116474,-30.22137,-12.72519,28.59542
-9.509769,-1.30484,1.307234,-22.50382,-61.40458,11.19084
-9.94312,-1.707066,2.166753,-18.38931,1.534351,4.763359
-8.315063,-1.010353,3.143587,-17.57252,25.96947,9.557252
-10.36929,-1.946486,3.320758,-7.961832,-0.4885496,11.29771
-10.23521,-1.656788,3.229778,-4.740458,-10.01527,0.08396947
-11.1881,-0.5985504,1.771709,-8.908397,32.01527,34.87023
-8.523358,-0.248997,1.357512,-12.46565,-37.49618,-0.9770992
-11.54484,-0.3040636,1.355118,-22.73282,26.92366,11.29008
-8.736442,0.07422025,2.645593,22.84733,-33.38168,-3.709924
-10.52491,-0.1819593,2.671929,6.641222,21.01527,-5.572519
-9.32781,-0.5386954,2.942474,17.39695,-38.00763,-23.78626
-8.939949,-0.7062895,4.113238,38.71756,5.580153,-33.42748
-9.330204,-0.1436521,1.616086,39.71756,34.44275,7.755725
-9.560047,-1.482011,1.489193,25.66412,8.19084,-29.12977
-9.176975,-1.757344,1.477222,30.20611,1.854962,-21.41985
-9.737218,-1.812411,1.917756,46.27481,12.67176,-14.1374
-10.60871,-2.367866,1.51553,58.41221,2.564885,-22.74046
-9.349358,-1.812411,1.537078,69.57252,23.77863,-21.87023
-9.275137,-1.640028,1.45328,87.82442,14.0,-26.07634
-10.80264,-2.719813,1.142034,86.84733,16.91603,-27.90076
-9.512163,-2.533065,1.165976,61.96947,34.46565,-15.28244
-10.78109,-1.716643,1.491588,52.29008,18.0687,10.0
-9.758766,-1.04866,1.268927,38.42748,-27.1145,13.40458
-8.961497,-2.229002,1.711854,32.57252,-21.16031,-5.923664
-10.69011,-1.551443,2.710236,50.70992,29.77099,-15.72519
-10.07241,-1.321599,2.516306,74.25191,-13.34351,-22.24427
-8.573636,-0.07422025,1.702277,74.12214,-11.57252,-21.70229
-11.0229,-0.2394202,3.651158,100.1985,32.22137,-30.80916
-9.26556,-0.8714894,3.280056,82.78626,13.73282,-29.24427
-7.982268,-0.1628057,2.200271,58.80153,24.98473,-2.152672
-10.16099,-0.3639187,4.000711,59.24427,-10.10687,-29.83206
-9.809045,-0.9744401,4.144363,45.96947,-13.65649,-23.03053
-9.969456,-1.343147,3.342306,30.77099,-12.28244,-17.27481
-8.652645,0.248997,3.055001,-8.78626,13.45038,28.07634
-9.193734,-1.659182,2.825158,2.931298,-66.61832,-47.49618
-8.76996,-1.446098,3.46441,-13.91603,45.26717,30.03817
-8.937555,-1.776498,4.795586,-12.73282,-59.77863,12.38931
-8.293514,-1.125275,5.396531,-52.90076,26.07634,11.9084
-8.791509,-1.92015,4.510676,-52.92366,-21.01527,24.9313
-10.79785,-1.264138,4.941632,-39.64122,-21.40458,24.96947
-8.614338,-1.620875,2.916138,-63.16794,-16.40458,35.65649
-9.356541,-0.557849,3.165135,-71.54198,8.877863,37.61069
-10.21606,0.1747767,3.148375,-84.48855,-0.7251908,44.21374
-8.99741,-0.8595184,4.570531,-67.21374,-33.22901,11.96947
-9.370906,-1.517924,3.5099,-41.42748,-13.0229,4.19084
-9.921572,-2.066196,3.3447,-40.93893,-11.96947,43.1145
-9.533711,-0.8619126,3.825934,-74.229,-43.26717,44.67176
-8.157045,-1.513135,3.138798,-109.8397,-0.02290076,30.0
-9.92636,-1.944092,3.82354,-97.06107,-0.08396947,70.39695
-10.54885,-2.229002,3.349488,-97.36641,-6.030534,47.0916
-8.717288,-0.938527,2.121263,-88.0458,20.94657,50.93893
-9.916783,0.09337386,2.408567,-74.35878,28.8855,33.53435
-9.698911,-0.02394202,2.688689,-52.27481,-14.53435,24.58015
-9.524135,0.320823,2.80361,-40.51908,11.20611,24.9771
-9.753978,-0.1867477,2.70066,-36.46565,-8.496183,4.045802
-9.375694,-0.2394202,2.6839,-18.25954,-14.40458,-11.47328
-9.557653,0.1244985,2.86586,3.931298,9.0,-7.534351
-9.82341,0.3615245,3.138798,-8.198473,39.51908,-19.37405
-10.51533,-0.02873042,2.667141,11.29008,-20.59542,-11.64122
-9.967062,-0.914585,1.917756,9.068703,0.7251908,15.8855
-10.20648,-1.671153,1.180341,-17.07634,-42.70992,-10.10687
-8.133103,-2.13084,2.183512,-11.9542,-1.450382,-0.5801527
-9.627085,-2.166753,2.726996,-23.24427,4.351145,-9.320611
-8.8777,-2.506729,3.481169,-40.29771,-25.16031,-6.40458
-9.064447,-1.393425,3.457227,-36.49618,19.83969,34.12977
-9.157822,-1.793257,3.773262,-27.30534,-9.022901,18.59542
-9.358934,-2.183512,4.22816,-25.8855,-5.206107,10.05344
-10.07959,-2.276886,2.336741,4.259542,-10.58015,0.3664122
-9.315839,-1.022324,1.376666,-17.0229,38.54198,10.66412
-9.078813,-0.5554548,1.795651,-18.80153,-14.55725,2.122137
-11.99974,-1.857901,2.430115,4.450382,16.83206,-8.045801
-8.932767,-1.199495,2.961627,28.0229,-4.80916,-2.076336
-9.866506,-1.35033,3.292027,38.25954,-16.12214,-20.68702
-10.46506,-0.9481038,3.643975,52.51145,-6.19084,-4.152672
-9.586384,-0.7613561,0.9313444,40.54962,59.41221,34.39695
-8.975863,-0.5865794,1.429338,28.28244,-34.38931,-31.22137
-9.112331,-1.474828,2.451663,25.78626,-16.38931,9.328244
-10.70448,-1.161188,2.681506,9.832061,28.58779,-19.28244
-8.92319,-1.005565,2.377442,-18.71756,6.610687,3.091603
-10.34295,-1.096544,3.284845,-4.526718,-26.84733,19.61832
-9.540894,-2.138022,1.261744,19.06107,32.41985,-7.61832
-9.011775,-1.23062,1.549049,33.13741,-30.0229,-13.12214
-9.935937,-1.362301,1.49877,72.89313,-4.870229,-26.15267
-9.028535,-0.9840169,1.891419,99.60305,9.78626,-39.48855
-10.70448,-1.127669,2.590526,108.9542,12.08397,-34.29008
-9.44752,-0.6679823,1.821988,104.0916,15.39695,-50.03053
-10.97742,-1.687912,2.240973,123.5725,27.19084,-39.99237
-8.669404,-1.671153,1.80044,122.0992,5.541985,-40.49618
-10.16339,-2.48997,1.678335,107.3511,26.20611,-43.49618
-9.337387,-2.468422,2.41575,114.2824,3.877863,-38.72519
-9.270349,-2.257732,2.734178,96.12214,30.79389,-31.67175
-9.78989,-1.556231,2.80361,65.33588,30.24427,-17.08397
-8.978256,-2.212242,3.399766,29.23664,-8.442748,-12.64886
-9.65821,-2.664747,3.699042,27.68702,-9.977099,14.38168
-8.437167,-2.032677,2.530671,26.59542,-16.0687,-27.23664
-9.569624,-1.321599,2.149993,33.59542,8.969465,0.961832
-9.89763,-0.4309563,2.451663,17.77863,10.07634,-7.251908
-9.275137,-1.347936,2.920926,17.0229,-0.02290076,-8.625955
-9.653421,-1.254562,2.873042,22.52672,15.98473,-5.900764
-9.129091,-1.300052,3.770868,28.61832,-25.12214,-36.80153
-9.938332,-2.063802,4.209007,18.25191,0.9083969,-15.28244
-9.382876,-2.025495,2.798822,-0.259542,26.41985,28.19847
-9.751583,-0.8379706,1.651999,-16.27481,2.091603,-1.564886
-9.504981,-2.264915,2.348712,-30.67175,-64.15267,-19.87786
-9.287108,-2.178724,3.064578,-30.07634,24.35878,24.00763
-9.615114,-2.336741,3.387795,-20.72519,-27.31298,21.52672
-9.167398,-2.212242,3.562572,-24.47328,11.08397,13.35878
-9.074024,-2.051831,3.885789,-30.15267,-14.9313,10.79389
-9.694122,-1.668759,2.825158,-41.0229,5.931298,15.0
-9.366117,-1.388637,1.92015,-40.89313,-13.0229,13.51908
-9.500193,-0.3687071,2.430115,-63.10687,-2.458015,27.35114
-8.777143,-0.8930372,2.387019,-24.99237,3.793893,1.083969
-10.50336,-1.204283,2.8491,-26.43511,16.52672,7.541985
-9.677363,-1.687912,2.482787,0.9160305,-14.58779,-1.290076
-9.837775,-0.8331822,3.442862,-9.244275,4.389313,7.656488
-9.050082,-0.2202666,1.477222,-7.671756,-19.34351,26.26718
-10.26634,-0.5889736,1.869872,-33.36641,-9.725191,-15.30534
-9.744401,-0.770933,1.283292,-56.70229,-10.8855,16.25954
-9.502586,-0.9074024,1.84593,-76.68702,-3.51145,26.38931
-10.59913,-1.596933,1.905785,-105.7405,-8.114504,20.83969
-9.406818,-1.549049,1.699883,-105.3969,-20.12977,25.79389
-10.4052,-2.0231,1.443704,-100.3511,-20.09924,22.38931
-9.689334,-1.316811,1.49877,-86.09924,22.58015,13.23664
-9.80665,-0.6033388,1.608904,-67.55725,-0.7022901,31.14504
-10.10353,-0.7852982,1.996764,-58.58015,-14.53435,5.740458
-9.500193,-0.5243302,2.193089,-49.58015,-10.34351,12.92366
-10.03649,-0.3998317,2.011129,-36.61069,-12.50382,-0.5496183
-9.629479,-0.8619126,1.865083,-24.54962,-7.801527,4.938931
-9.859323,0.2561796,2.042254,-14.64122,-6.145038,7.61832
-10.62547,-0.6727707,2.027889,-11.38931,0.9160305,1.916031
-9.409213,-1.321599,2.377442,-8.450381,-28.50382,2.992366
-9.55047,-1.690306,2.731784,-23.57252,-7.045802,-4.503817
-9.363723,-1.910573,2.715025,-23.80153,-5.755725,3.351145
-9.370906,-2.468422,3.292027,-28.60305,-24.19084,-7.022901
-8.870518,-2.178724,3.46441,-16.9313,31.15267,26.82443
-9.701305,-1.070208,2.870648,-15.73282,24.87786,11.90076
-9.773131,-1.063026,2.901772,-15.26718,16.19084,12.92366
-9.610326,-1.30484,1.908179,-31.0,6.38168,13.53435
-10.59674,-0.8236053,2.123657,-38.74809,-4.587786,31.91603
-10.12029,0.5626374,1.762132,-15.44275,-1.236641,6.900764
-10.70687,-0.1963245,0.8930372,-28.22901,-5.465649,14.19847
-9.143456,0.7062895,0.8810662,-52.14504,23.48855,6.396946
-10.79067,0.7733272,1.426944,-34.99237,-17.17557,17.86259
-9.260772,0.4046201,2.549825,-9.114504,-13.65649,-10.03817
-9.97185,-0.04548983,2.82037,18.0916,-3.839695,-21.32825
-10.79546,0.2753332,2.985569,37.36641,-19.74809,-4.51145
-10.74278,0.3998317,2.25055,33.00763,-30.46565,6.48855
-8.192958,-0.7038953,2.269703,39.9542,-14.23664,-31.98473
-10.80264,-1.398214,3.462016,18.09924,2.633588,-20.38168
-9.215282,-0.6368576,3.785233,31.42748,15.77099,-10.9542
-9.054871,-0.6607997,3.600879,20.01527,-12.28244,-7.709924
-9.737218,-0.9840169,4.278439,12.46565,-22.67939,-38.66412
-9.445126,-1.520318,3.711013,13.26718,3.259542,-8.099236
-8.576031,-1.060631,2.181118,20.0458,18.67175,-0.4274809
-10.67096,-1.086968,2.200271,33.29771,29.94657,-14.8855
-8.456321,-1.352724,2.882619,78.89313,0.2213741,-34.83969
-10.95108,-1.170765,3.29921,84.85497,25.67175,-40.01527
-9.643845,-1.659182,1.699883,106.4962,4.961832,-36.64885
-9.442732,-1.307234,1.33357,107.1603,27.90076,-29.03817
-9.998186,-2.284068,1.596933,105.4046,31.27481,-61.27481
-9.380483,-2.497152,1.980005,69.229,37.31298,-14.84733
-10.29746,-1.766921,1.661576,36.01527,42.92366,-4.763359
-9.667787,-2.154782,1.898602,13.54962,-13.72519,19.71756
-9.73243,-2.813187,1.893814,-15.89313,-27.29008,0.5725191
-10.16817,-2.298434,1.821988,7.70229,-2.610687,8.969465
-9.31105,-2.212242,1.719037,37.1145,-24.38168,-23.22901
-9.952697,-1.355118,1.328782,43.59542,40.71756,-6.091603
-9.856929,-0.5267244,2.327164,63.46565,-7.709924,-11.80916
-9.442732,-1.568202,2.746149,40.16031,-11.14504,-11.87023
-9.411607,-0.8092402,2.827552,24.43511,24.32061,14.15267
-9.77792,-0.4261679,3.361459,9.183207,-41.13741,-9.961832
-10.34056,-1.369483,3.852271,-0.9236641,-5.068702,-4.694656
-8.90643,-0.5530606,2.161964,6.351145,-14.64122,20.0687
-9.849746,-0.7086837,2.583344,-42.80153,-13.51145,8.740458
-8.207323,0.1891419,2.226608,-84.60305,40.22137,48.20611
-10.58477,-0.5243302,1.795651,-123.3664,-12.16794,43.14504
-10.03649,-1.522712,1.491588,-144.1069,-1.648855,29.59542
-9.279925,0.3232172,1.565808,-119.4275,49.9542,44.78626
-10.49618,1.154005,1.398214,-78.53435,12.32061,32.30534
-9.473856,1.422156,0.3663129,-74.90076,54.07634,21.33588
-10.18493,-0.02394202,-1.115698,-100.6718,-6.21374,-37.9542
-9.928755,-0.6584055,-0.1101333,-57.69466,-43.9313,-13.75572
-9.392453,-0.7110779,0.1077391,-43.64122,-1.580153,9.541985
-10.45308,-1.893814,0.4094085,-51.08397,-2.099237,-9.076336
-10.86489,-1.302446,1.623269,-39.22137,1.877863,33.1832
-9.703699,-1.936909,2.738967,-45.1832,-35.49618,-15.9313
-9.241618,-1.999158,1.764527,-5.160306,-11.70992,-0.8396947
-10.22085,-1.268927,2.41575,-0.3206107,-3.496183,10.10687
-10.02931,-1.381454,2.296039,12.08397,-16.44275,-0.09923664
-8.485051,-0.7062895,2.640805,33.15267,-5.274809,14.58779
-6.703765,1.096544,1.778892,9.259542,57.41985,14.48092
-10.75715,0.5147533,1.192312,26.85496,10.26718,0.7175572
-8.990228,0.890643,1.347936,8.572519,26.80916,-7.221374
-6.890512,0.3423708,1.857901,19.15267,-34.06107,-37.9542
-8.738836,-0.5674258,-0.2944868,-8.923664,37.12214,4.610687
-10.59674,0.272939,-0.02394202,3.145038,-29.87023,1.923664
-10.92474,-0.1149217,-1.000776,11.49618,21.56489,-29.75573
-12.58392,-1.343147,2.786851,-12.98473,-106.5267,-4.51145
-14.34127,-1.939303,5.966351,-8.343512,-69.38168,-6.389313
-7.66384,-1.204283,2.358289,24.12977,22.74809,3.870229
-5.825093,0.3854665,3.600879,9.832061,-14.74809,13.54962
-10.74278,0.6488287,5.422867,8.969465,13.62595,17.91603
-9.308656,0.3375824,3.268085,-1.717557,61.79389,4.648855
-8.662222,0.225055,2.456451,-15.52672,3.145038,-13.0
-11.67413,-1.015141,2.300828,-0.389313,35.91603,-4.236641
-10.56561,-0.1029507,2.094927,1.740458,16.34351,-2.480916
-10.2831,0.2825158,1.089362,1.251908,19.33588,9.366412
-8.930372,0.4118027,0.296881,0.5572519,-14.34351,-2.335878
-10.63504,0.4596867,0.4884171,-10.70992,-2.694656,-4.007634
-10.6542,0.1412579,1.630451,-6.549618,3.900763,2.267176
-10.10353,0.5602432,1.558625,-2.374046,-22.09924,3.358779
-8.051701,0.2920926,2.63841,-13.80916,-25.49618,5.496183
-10.4483,0.7015011,3.536236,-11.15267,17.33588,-5.068702
-8.896853,0.1197101,3.435679,-3.19084,-29.08397,-6.282443
-9.097966,0.2035071,2.954445,-5.374046,21.35878,-5.496183
-9.840169,0.04070143,3.306392,1.389313,7.572519,-8.022901
-11.77229,0.02394202,4.422091,0.5114504,-6.687023,2.038168
-11.18332,-0.007182605,2.193089,-6.832061,2.022901,-17.50382
-9.900024,-0.5363012,1.450886,19.84733,-0.6335878,-12.32061
-8.520964,-1.446098,1.565808,30.9542,4.091603,-7.496183
-8.394072,-1.331176,0.1747767,23.56489,-4.21374,11.16031
-9.82341,-0.5506664,1.96564,-8.160305,-5.091603,-5.015267
-10.3238,-0.3854665,2.070984,-17.60305,17.00763,0.7557252
-11.54723,-1.063026,1.426944,-37.41985,-30.34351,0.06870229
-12.78025,-0.07900865,2.545036,4.847328,26.9542,36.12977
-10.93911,-1.098939,2.097321,4.236641,0.9007633,-19.30534
-10.22324,0.3998317,1.027112,33.58015,51.54962,23.79389
-8.576031,0.9720459,0.2513912,-2.419847,6.122138,5.152672
-7.750031,0.4213795,0.4333505,-28.20611,-48.90076,-12.92366
-9.176975,0.6655881,2.133234,-26.70992,-14.17557,-2.89313
-8.872911,0.7230489,2.396596,-27.70229,-4.442748,3.984733
-9.682152,-0.1771709,3.177106,-23.58779,-20.38931,-4.961832
-9.543288,-0.1795651,3.210624,3.755725,-11.16794,7.847328
-10.53209,-0.1939303,3.023877,12.46565,-8.938931,-3.480916
-8.020576,-0.3040636,1.716643,22.70992,-4.175572,-9.503817
-12.41872,-1.177947,2.703054,17.94657,7.557252,-5.931298
-7.838616,-0.4070143,2.796427,15.35878,4.08397,-6.938931
-10.50576,-0.4740519,3.150769,10.10687,11.38168,1.312977
-9.811439,-0.7062895,3.615245,14.93893,-14.16031,-0.2900764
-9.65821,0.0,2.753332,21.64886,14.9771,-5.442748
-9.167398,-0.1604115,2.545036,18.74046,-5.38168,2.038168
-9.059659,0.2082956,1.869872,21.0458,-9.839695,-13.98473
-10.39802,0.1053449,2.461239,33.22901,19.9313,-5.839694
-9.224859,0.1460463,3.244143,54.74046,-14.23664,-19.25954
-9.593566,0.4477157,2.829947,67.87786,9.450381,-21.33588
-9.605537,0.4213795,3.294421,77.57252,-13.64122,-29.87023
-11.07079,0.3256114,1.793257,81.70229,27.41985,-14.49618
-9.998186,-0.3591303,2.209848,69.76336,-21.59542,-36.36641
-9.356541,-0.4812346,2.147599,82.46565,-10.80153,-31.17557
-9.342175,-0.8283938,2.418144,86.63359,26.23664,-31.37405
-10.08677,-0.5770026,2.698265,83.91603,4.145038,-30.19847
-9.698911,-1.477222,2.868254,64.48092,-10.62595,-26.89313
-9.746795,-1.403002,2.736573,71.72519,-6.10687,-19.74809
-10.07959,-1.055843,2.583344,94.87023,-6.732824,-21.74046
-9.287108,-0.581791,1.989582,143.2137,-15.22901,-32.27481
-10.59434,0.6081272,1.582567,128.145,-2.40458,-49.93893
-9.746795,1.826776,1.628057,139.7939,-16.07634,-27.82443
-9.923966,0.9361328,2.509123,121.5878,-8.832061,-57.52672
-9.854534,0.8188169,3.033453,99.01527,10.68702,-41.06107
-9.054871,1.283292,2.834735,73.9542,6.251908,-10.36641
-9.94312,1.132457,3.248932,17.47328,11.76336,-16.63359
-9.308656,2.013524,2.736573,-45.94656,5.740458,6.251908
-9.876082,1.503559,2.367866,-112.6412,-9.78626,25.83969
-9.773131,0.7637503,1.838747,-159.9466,-4.671756,52.37405
-9.689334,0.8523358,0.8499416,-193.7328,-8.992367,62.31298
-10.37168,0.5746084,1.393425,-197.7405,3.427481,68.07633
-10.24239,0.02633622,1.355118,-179.6183,-5.824428,66.61069
-9.720459,-0.02873042,1.917756,-168.6412,-1.48855,66.76336
-9.701305,-0.1771709,2.597709,-163.5496,14.09924,66.74809
-9.871294,0.04309563,1.721431,-153.4351,21.78626,63.61069
-10.12508,-0.1077391,2.355895,-152.7099,6.442748,47.98473
-9.722853,-0.5961562,2.135628,-134.9771,-5.198473,42.31298
-9.921572,0.3423708,2.346318,-109.3893,16.12977,37.31298
-9.713276,-0.4261679,2.736573,-67.09161,-12.47328,20.70992
-9.885659,-0.5626374,2.367866,-37.0687,20.1145,30.83969
-9.636662,-0.605733,3.272874,-7.08397,-13.30534,-22.78626
-9.040505,-1.055843,2.588132,53.15267,22.35114,-14.74046
-9.952697,-0.9983821,2.39899,89.69466,24.61069,-26.30534
-10.27591,-0.4285621,2.11408,110.5954,4.122138,-34.99237
-10.41478,-0.3854665,1.848324,130.2214,1.526718,-28.48855
-9.866506,-0.6727707,1.505953,155.1221,-16.94657,-53.36641
-9.871294,0.1580173,1.529895,172.5267,8.740458,-38.90076
-10.53688,0.1771709,1.692701,166.7786,-5.19084,-57.26717
-9.782708,-0.09576806,1.810017,165.8931,26.46565,-38.47328
-9.797073,0.5482722,1.87466,129.2214,2.541985,-32.42748
-9.744401,0.7589619,2.061408,95.16794,13.55725,-22.90076
-9.718064,0.7062895,2.319981,58.23664,1.290076,-11.76336
-9.627085,0.237026,2.525883,9.114504,7.969466,-5.954198
-9.653421,0.1891419,2.829947,-30.59542,-0.6870229,7.122138
-9.452309,0.2202666,2.305616,-80.14503,-3.938931,25.18321
-9.028535,-0.5027823,1.651999,-101.2824,11.26718,30.24427
-8.947132,-0.9792285,0.9193734,-74.23664,7.984733,5.603054
-9.074024,0.05746084,1.606509,-38.34351,11.87786,10.81679
-6.787562,0.5027823,1.517924,-16.86259,15.32824,16.74046
-9.260772,0.09337386,0.4812346,-12.58779,16.9313,4.358778
-12.09551,-1.084573,2.245761,-5.38168,-34.49618,-3.061069
-13.19923,0.09337386,3.08852,17.22137,13.80153,-0.3358779
-11.21923,-0.2681506,2.427721,9.931297,-8.801527,-3.847328
-10.20648,-0.2585738,2.571373,14.51908,13.29771,4.465649
-10.55125,-0.4548983,1.991976,13.9084,1.80916,-2.427481
-9.442732,-0.2513912,1.82917,-0.5648855,-10.80916,-5.396946
-12.56238,-0.272939,3.653552,-14.82443,3.083969,-5.740458
-13.20881,-0.9959879,1.707066,-19.34351,41.20611,-0.9236641
-10.84573,0.2801216,1.292869,-10.45038,-15.55725,13.96947
-10.29267,-0.7230489,1.223437,2.832061,11.80916,-10.57252
-9.507375,-0.2394202,1.407791,-5.38168,-1.89313,7.015267
-9.610326,-0.1604115,1.640028,-4.251908,-15.21374,-0.7557252
-9.088389,-0.1412579,1.587356,-2.80916,-9.251908,-0.04580153
-8.908825,0.225055,1.810017,-4.557252,-1.496183,6.442748
-8.724471,0.1556231,1.675941,-10.01527,-19.9771,-7.70229
-9.069236,-0.5985504,2.133234,-6.343512,-17.9084,-0.2213741
-9.967062,-0.4405331,3.083732,1.717557,-9.320611,-3.412214
-9.186552,-0.3519476,3.023877,8.145039,8.648855,-0.1526718
-8.784326,-0.3567361,3.086126,6.389313,-2.854962,-7.519084
-9.756371,-0.6105214,3.727772,-1.801527,-8.167939,1.557252
-9.018958,-0.8619126,4.082114,3.259542,-13.45038,-2.068702
-8.985439,-1.747767,3.86903,-0.5343512,1.259542,-0.2977099
-9.203311,-1.460463,3.718195,3.198473,-10.37405,-2.709924
-9.107543,-2.396596,4.51307,23.87786,-28.59542,-24.91603
-8.300697,-1.345541,3.634398,27.83969,15.58779,-26.83969
-9.821015,-0.2059013,3.557784,44.58015,8.358779,-16.45802
-9.200917,-0.5793968,4.053383,44.64885,10.43511,-17.51145
-8.8777,0.007182605,3.404555,44.87023,17.35878,-16.19847
-9.392453,-0.7876924,3.679888,34.68702,2.648855,-12.03817
-9.16261,-0.5626374,4.043807,25.54198,5.687023,-12.12214
-9.16261,-0.7733272,4.548983,17.09924,-11.44275,-15.30534
-10.00297,-0.8355764,4.692636,9.091603,-5.320611,-12.12214
-8.197746,0.02873042,3.588908,-12.77099,-4.671756,21.92366
-9.16261,-1.043872,3.126827,-26.61832,-25.25191,-7.038168
-9.785102,-0.7038953,3.55539,-32.74809,8.320611,26.28244
-8.60955,-0.7326257,4.201824,-52.69466,3.450382,23.80153
-9.572019,-1.225831,4.134786,-57.89313,-6.175572,30.96947
-8.942344,-1.374272,4.599261,-43.35878,1.236641,34.39695
-8.78672,-0.3782839,3.904943,-51.44275,-19.98473,13.25954
-9.165004,-0.2992752,3.567361,-39.99237,1.198473,19.03053
-9.349358,0.2226608,3.438074,-54.79389,6.10687,24.15267
-9.627085,0.5147533,3.955221,-72.69466,-11.00763,24.09924
-9.270349,-0.3423708,3.119645,-81.36641,-13.30534,37.89313
-9.564836,-0.02873042,3.643975,-84.92367,1.801527,50.32061
-9.557653,-0.6200982,3.131616,-78.63359,-2.312977,40.51145
-9.167398,-0.7757214,3.41892,-66.55725,8.496183,37.72519
-9.560047,-0.9696517,3.119645,-44.32061,-14.28244,19.20611
-9.234436,-0.7565677,3.050213,-19.0687,-8.21374,14.19847
-10.40281,-0.6751649,3.981557,-12.42748,-14.77863,2.412214
-9.181764,-0.4572925,4.340688,-1.763359,-38.38168,6.770992
-8.116343,-0.3567361,4.941632,-5.687023,-29.98473,-10.49618
-7.369353,-0.9313444,6.189012,0.2977099,-20.83969,-1.59542
-8.274361,-0.4070143,6.315904,-6.244275,-3.358779,8.625955
-7.350199,-0.7541735,6.141128,-2.564885,-8.030535,2.664122
-7.450756,-0.4381389,6.270414,-15.66412,25.0916,7.061069
-8.185776,-0.5985504,5.887342,-17.08397,24.03817,13.33588
-8.492233,-0.5027823,5.161899,-21.63359,41.66412,25.10687
-8.930372,-0.7445967,4.831499,-14.43511,19.77863,9.656488
-9.059659,-0.5626374,4.060566,-11.46565,51.61832,5.526718
-9.461885,-0.2106898,3.023877,-6.992366,42.65649,2.038168
-10.1562,-0.3782839,2.82037,-13.72519,52.9313,-4.526718
-9.825804,-0.3016694,1.010353,-4.687023,19.03053,12.58015
-10.08677,-0.605733,0.1388637,-18.54198,3.389313,-8.045801
-10.14663,-0.4333505,-0.3256114,-6.717557,10.84733,0.1755725
-10.14902,-0.2873042,-0.6272808,-6.473282,44.35878,2.625954
-10.07001,-0.641646,-1.426944,-4.175572,30.0229,-0.9312977
-10.52012,-0.5291186,-1.553837,-7.419847,15.79389,0.02290076
-10.41717,-0.6344634,-1.838747,3.564885,-7.259542,-2.717557
-10.25915,-0.4070143,-1.673547,-4.030534,17.75573,4.0
-8.307879,-0.1412579,-2.346318,-7.412214,-2.793893,-3.21374
-11.14022,-0.7326257,-0.9959879,-1.274809,9.534351,9.312977
-9.40203,0.2705448,-1.687912,-15.22137,29.03817,9.610687
-9.303867,-0.5602432,-1.915361,-12.68702,17.0229,4.335878
-9.744401,0.06224924,-3.842694,-3.763359,53.94656,15.0687
-10.1155,0.1987187,-4.685453,8.938931,35.91603,0.5343512
-8.042124,0.5315128,-6.052542,-1.129771,53.61832,10.77863
-8.054094,0.2154782,-6.258443,12.19847,23.18321,11.94656
-7.558495,0.5913678,-6.438008,6.572519,19.12977,-2.358779
-7.934384,0.4932055,-7.493851,3.015267,60.69466,11.77099
-6.698977,0.8834604,-6.260838,-8.648855,14.64886,-2.038168
-7.129933,1.029507,-8.26239,7.961832,19.61832,11.8626
-6.179435,1.163582,-6.43322,8.526717,-8.412213,-3.435115
-7.687782,0.4932055,-7.218518,11.25954,-36.86259,-1.412214
-7.433996,0.2825158,-7.438785,7.969466,-31.9084,-0.3358779
-8.520964,0.1173159,-6.34224,-8.320611,-23.51908,-10.63359
-8.595184,0.926556,-6.126762,-7.38168,-19.14504,13.67176
-9.634268,0.9840169,-5.341464,-10.0687,-42.22901,-3.480916
-10.91995,0.8882488,-4.692636,5.480916,-56.90076,19.85496
-9.188946,1.752556,-3.220201,37.80153,-20.54198,32.85496
-8.738836,2.0231,-2.841918,30.18321,-41.37405,-1.80916
-9.090784,1.393425,-2.844312,15.68702,14.75572,2.305344
-8.470686,1.647211,-2.937685,-21.68702,14.03053,-13.0458
-10.01734,1.290475,-3.193865,-25.70992,11.31298,-16.74046
-9.19134,0.7876924,-3.818752,-28.61832,24.77863,-23.07634
-8.901642,0.1795651,-4.134786,-19.26718,25.07634,-14.9771
-8.956709,0.2059013,-4.762067,-9.656488,20.09924,-6.145038
-9.339781,0.1508347,-6.019023,-5.152672,-4.21374,9.015267
-9.68694,0.9337386,-5.702989,10.0229,33.64885,17.50382
-8.602366,0.9935937,-6.634333,8.671756,-6.305344,14.24428
-8.176199,1.228225,-6.258443,13.22901,-1.206107,15.20611
-7.48188,1.644816,-6.054936,15.8626,0.778626,17.0916
-7.474698,1.84593,-6.562507,14.9084,-6.137404,8.389313
-7.862558,1.944092,-6.596025,4.167939,0.2900764,6.847328
-8.161834,1.058237,-6.481104,17.49618,-24.89313,-2.51145
-7.675811,0.7230489,-5.803545,7.465649,-23.01527,2.465649
-8.832211,1.613692,-5.319916,10.98473,-58.76336,-0.4351145
-10.60631,1.086968,-4.489128,13.77099,-55.28244,5.923664
-10.06762,1.56102,-1.616086,18.32061,-47.74809,18.59542
-9.540894,1.225831,-0.7661445,24.74046,-82.94656,-2.450382
-9.713276,0.9792285,0.6224924,35.55725,-40.54962,-12.56489
-9.734824,1.326388,0.641646,44.32061,-21.33588,-2.862595
-10.15381,1.580173,1.419762,34.12977,-26.94657,-0.3969466
-9.416395,2.035071,1.640028,36.06107,-9.198473,21.35878
-9.497798,2.365471,1.347936,27.9542,-2.129771,10.0916
-9.416395,3.004723,1.843535,32.32824,-0.8015267,15.67176
-9.375694,3.011906,1.510741,24.78626,-13.1145,22.63359
-9.466674,3.294421,1.103727,22.79389,-6.152672,6.396946
-9.299079,3.746926,1.012747,1.328244,6.732824,-2.687023
-9.605537,3.205836,0.6703765,-5.580153,-0.6564885,-15.96183
-9.983821,2.75812,0.9672575,-9.061069,-0.2824428,-19.13741
-9.742006,2.336741,1.103727,-14.21374,-5.290076,-20.00763
-9.696517,1.719037,1.132457,-1.549618,-1.519084,-28.60305
-10.23521,1.23062,1.448492,-4.587786,8.816793,-31.80153
-9.821015,0.5841852,0.9074024,-0.3053435,-4.21374,-24.8855
-10.14184,-0.05746084,1.036689,-9.580153,-5.717557,-23.20611
-10.09874,-0.6033388,1.197101,-9.648855,-9.740458,-14.61069
-9.581595,-0.7206547,1.695095,-16.63359,-25.9084,-9.80916
-10.18493,-1.137246,2.161964,-10.67939,-9.38168,-4.427481
-9.555259,-1.249773,2.138022,-13.30534,-8.671756,-4.625954
-9.876082,-1.637634,2.468422,-6.908397,-21.80153,-21.87786
-9.43076,-2.269703,2.511518,-4.580153,19.65649,-15.67939
-9.531317,-2.147599,2.238579,-0.3664122,4.343512,-16.9771
-9.629479,-2.389413,2.087744,-4.778626,14.44275,-5.496183
-9.548077,-3.086126,1.912967,-0.389313,2.625954,-12.8855
-9.809045,-3.41892,1.505953,12.59542,-3.251908,-10.35114
-9.07163,-2.980781,2.082955,18.90076,25.37405,-19.27481
-9.023746,-3.064578,1.151611,1.274809,13.70992,-1.221374
-9.55047,-3.521871,1.474828,2.648855,3.381679,-5.099236
-9.586384,-3.318364,1.170765,-1.641221,9.633588,1.961832
-9.483433,-3.438074,1.149217,-1.458015,3.435115,5.59542
-9.868899,-3.222595,1.029507,-0.9923664,7.091603,11.99237
-9.593566,-2.861071,0.9361328,-0.1221374,13.43511,18.38931
-9.615114,-2.679112,0.8499416,0.1526718,-7.312977,13.60305
-10.04607,-2.140416,0.878672,-4.030534,13.55725,15.39695
-9.856929,-1.795651,0.9528923,-1.679389,-0.04580153,15.76336
-9.739613,-1.711854,0.9433154,-2.427481,4.801527,15.41221
-10.31422,-1.204283,0.7254431,0.1221374,17.93893,30.43511
-10.06522,-0.56982,0.1628057,-2.625954,5.923664,13.61832
-10.12029,-0.3758897,0.2633622,-5.473282,1.732824,16.59542
-10.16339,-0.03351882,-0.1795651,-7.015267,5.419847,14.89313
-10.06522,-0.01197101,-0.1125275,-1.801527,-4.038168,3.351145
-10.18254,0.08140286,-0.05267244,4.832061,-1.40458,-1.450382
-10.04607,0.07900865,-0.1101333,15.90076,3.51145,2.251908
-10.08677,0.2394202,-0.2011129,18.25954,4.824428,-1.183206
-10.31422,0.05027823,-0.2418144,20.01527,-4.854962,-8.061069
-10.24958,0.4812346,-0.03112462,12.18321,7.045802,3.473282
-10.19451,0.4070143,-0.225055,-3.458015,-10.48855,-3.198473
-9.967062,0.2466028,0.07422025,-6.671756,-2.618321,4.862596
-10.13226,-0.08619126,0.3280056,-1.312977,-15.50382,-5.557252
-10.09635,-0.2633622,0.5003881,4.320611,2.183206,-8.183207
-9.974244,0.2011129,0.3806781,10.56489,5.61832,-4.931298
-10.1562,-0.5434838,0.4285621,13.41985,-5.0,-16.54962
-10.45069,-0.2825158,0.5123591,5.320611,18.06107,-3.366412
-10.16817,-0.4333505,0.2035071,-7.633588,-6.137404,-7.290076
-9.639056,-0.7876924,0.1580173,-14.33588,2.793893,-5.29771
-10.16817,-1.146823,0.2825158,-7.519084,-11.19847,-9.40458
-9.92636,-0.9720459,0.4237737,0.2671756,1.633588,2.770992
-10.17775,-0.9888053,0.4812346,1.480916,-5.312977,0.5954198
-9.871294,-0.9337386,0.03591302,-2.519084,25.94657,8.862596
-9.988609,-0.5123591,0.08140286,-8.923664,-15.44275,-0.259542
-10.11311,-0.8930372,0.3375824,-9.748092,1.664122,0.5877862
-10.02931,-0.4979939,0.320823,-4.664122,2.603053,9.557252
-10.06522,-0.4501099,0.272939,-8.366412,-2.160305,2.519084
-10.18254,-0.2896984,0.3974375,-6.167939,-11.32824,5.015267
-10.10832,-0.4764462,0.6248866,-1.229008,1.977099,5.847328
-10.23761,-0.4022259,0.4836287,-0.5114504,-6.351145,-6.419847
-10.05804,-0.2561796,0.629675,3.770992,-0.6259542,-0.480916
-9.981427,-0.2035071,0.6224924,0.6793893,0.4122138,-0.9083969
-10.31662,-0.3591303,0.6248866,-0.06870229,-1.908397,3.603053
-10.16817,-0.1771709,0.533907,-1.717557,-0.1450382,5.21374
-10.05325,-0.3830723,0.5075707,-4.908397,-12.00763,0.9847328
-10.32859,-0.2011129,0.5889736,-6.740458,3.076336,7.206107
-10.13944,-0.08858546,1.158794,-2.053435,-0.7480916,4.19084
-9.490616,-0.04788403,0.8954314,5.137404,27.49618,-5.557252
-10.06044,0.5793968,0.521936,4.824428,15.69466,-7.687023
-10.07959,-0.5482722,0.6799533,-22.77099,-14.8626,-12.55725
-14.48731,-1.149217,1.237802,-18.0916,17.36641,-7.961832
-10.72842,-1.106121,-1.929727,-3.320611,78.86259,4.587786
-9.821015,-0.3782839,-1.132457,-8.122137,0.5114504,-15.1145
-9.65821,-0.8858546,-1.01993,-11.64122,-1.908397,-7.847328
-10.15381,-0.7086837,-1.745373,0.4198473,-2.21374,10.52672
-8.985439,-0.5913678,-1.836353,-0.8244275,0.3664122,-1.625954
-9.864111,-0.7206547,-1.728614,1.541985,0.7938931,5.358778
-9.481039,-0.3184288,-1.989582,-6.61832,-1.679389,6.038168
-9.816227,-0.4955997,-1.355118,-5.198473,-14.29771,5.473282
-9.43076,-0.1843535,-1.216254,-3.70229,-10.28244,9.511451
-9.43076,0.308852,-1.022324,-5.114504,-2.80916,15.0458
-9.722853,0.3926491,-0.6488287,-3.312977,-25.0229,7.824428
-10.23282,0.6105214,-0.320823,6.603054,-15.03053,20.20611
-9.749189,0.5626374,0.1963245,11.09924,-22.9542,11.19084
-9.258378,1.668759,0.05746084,14.9542,6.59542,23.37405
-9.744401,2.288857,-0.2082956,1.541985,-6.160306,11.42748
-10.72842,2.264915,-0.03830723,11.33588,-11.99237,-3.503817
-9.454702,2.504335,0.1508347,0.259542,-5.541985,-14.41985
-9.442732,1.479617,-0.01197101,-9.61832,-20.63359,-11.55725
-10.40281,0.7757214,0.1053449,-13.14504,1.10687,-22.17557
-9.41879,0.8810662,0.902614,-15.1374,6.938931,-8.458015
-10.84334,0.1005565,0.6320692,-13.03053,-9.259542,-12.03817
-9.868899,0.1149217,1.280898,-16.06107,0.4580153,-6.725191
-10.42914,-0.4884171,1.946486,0.2213741,-16.67939,-12.59542
-9.974244,-0.3160346,1.781286,4.816794,2.503817,-7.320611
-9.861717,-0.5386954,1.623269,0.6412213,-4.122138,-9.099236
-9.646238,-0.6775591,1.690306,7.435114,-10.25954,-2.633588
-9.911995,-0.7254431,2.044648,16.73282,-8.572519,1.89313
-9.792285,-0.8044518,1.848324,22.54198,-0.5038168,3.335878
-10.0748,-0.3399766,1.563414,21.60305,2.534351,4.824428
-9.955091,-0.3543419,1.520318,19.21374,-2.694656,5.267176
-10.05325,-0.07182605,1.462857,16.8855,6.648855,2.778626
-9.684546,0.3902549,1.352724,13.64122,5.641222,-1.480916
-9.888053,0.890643,1.697489,5.503817,4.671756,1.374046
-9.318233,1.165976,1.632845,-11.65649,3.473282,5.603054
-10.08438,0.8571242,1.640028,-19.68702,5.145038,5.717557
-9.818622,0.6607997,1.68073,-16.68702,-1.206107,1.259542
-9.947908,0.914585,1.580173,-14.99237,12.74046,8.083969
-9.710882,0.641646,1.312023,-17.03053,4.587786,1.80916
-10.27591,1.06542,0.9768343,-22.93893,15.26718,10.39695
-9.907207,0.4836287,1.199495,-24.38931,-0.3816794,-2.641221
-10.24,0.3303998,1.161188,-12.69466,-0.5038168,-2.442748
-10.23521,0.237026,1.359907,-4.854962,-0.4427481,-3.679389
-9.68694,0.4740519,0.9457096,-4.374046,-3.465649,-0.09160305
-9.931149,0.4118027,0.6512229,-11.41985,6.931298,-3.198473
-10.20888,0.02394202,0.5506664,-10.10687,8.396947,-1.267176
-10.02213,-0.09576806,0.4429273,-4.473282,8.610687,1.259542
-10.31901,0.01436521,0.1651999,-3.572519,4.274809,-3.412214
-10.08198,-0.1029507,0.2035071,3.862595,7.51145,0.9160305
-10.25676,0.06943185,0.1484405,6.587786,1.366412,0.8625955
-9.964667,0.07422025,0.01197101,4.679389,2.251908,1.030534
-10.16578,0.1244985,0.04309563,3.305344,-0.3435115,1.343511
-10.09874,0.1580173,0.1388637,4.40458,-0.7480916,2.610687
-10.12029,0.2561796,0.1436521,5.824428,-0.8244275,3.381679
-10.07001,0.2011129,0.2011129,5.732824,-1.847328,-1.030534
-10.02213,0.3399766,0.2442086,9.160305,3.229008,-1.519084
-9.945514,0.2011129,-0.007182605,13.9542,6.290076,-8.061069
-10.30704,0.1675941,0.08379706,16.86259,1.48855,-2.78626
-10.13466,0.2944868,0.2585738,13.12977,-1.480916,1.633588
-10.47224,0.3543419,0.6392518,14.05344,-20.09924,1.870229
-10.09156,0.3016694,0.2513912,12.14504,-16.77099,-4.824428
-9.797073,0.7134721,0.3423708,9.580153,-7.129771,-0.9389313
-10.24,-0.1292869,0.6488287,-4.59542,-8.290076,-11.58779
-10.28549,-0.1604115,0.866701,-22.9313,-4.480916,3.969466
-9.619903,-0.02394202,1.007959,-45.72519,-16.64886,12.27481
-11.09473,-0.4764462,2.011129,-28.76336,6.10687,-15.1374
-10.15141,-0.3016694,1.565808,-25.00763,16.56489,25.45038
-9.871294,0.1867477,-0.1316811,-24.38168,18.82443,7.48855
-9.593566,0.009576806,1.388637,-12.39695,7.580153,9.206107
-9.871294,0.4261679,1.165976,-23.61832,-1.625954,2.473282
-10.57758,0.01197101,1.108515,-15.22901,5.458015,1.244275
-9.900024,0.4860229,0.4860229,-0.6793893,17.69466,15.78626
-9.883265,0.3902549,0.5243302,-2.061069,-3.122137,-5.587786
-10.49139,1.055843,-0.3663129,-0.5267176,-0.05343511,-3.396947
-9.856929,0.6991069,0.02394202,-1.328244,16.30534,2.175573
-9.691729,1.079785,-0.3495534,-3.641221,17.63359,-0.1450382
-9.504981,1.098939,-0.5075707,-9.038168,7.374046,-12.0229
-10.77391,0.830788,-0.5434838,-7.709924,17.39695,-4.343512
-10.00297,0.8978256,-1.127669,-8.633588,23.0458,4.0
-9.818622,0.8834604,-1.486799,1.564886,13.64122,-0.4274809
-9.749189,0.8188169,-1.805228,2.435115,14.98473,0.9160305
-10.17296,1.046266,-2.003947,1.167939,7.977099,2.389313
-10.16817,0.9888053,-2.123657,-0.7709923,-3.0,2.10687
-9.715671,1.096544,-2.363077,-2.564885,-5.137404,3.480916
-10.01973,1.319205,-2.197877,-7.580153,2.877863,2.923664
-9.646238,1.357512,-2.037466,-12.19847,0.4045802,1.740458
-10.02452,1.307234,-2.097321,-14.06107,-2.862595,1.198473
-9.801862,1.084573,-2.11408,-6.030534,-1.793893,-2.854962
-10.63504,1.532289,-1.960851,-9.274809,-2.931298,6.290076
-9.756371,1.312023,-1.436521,-12.85496,-15.76336,-0.0610687
-10.12987,1.398214,-1.233014,4.580153,-15.75572,5.244275
-10.02452,1.482011,-0.4405331,11.1145,-17.09924,-0.09923664
-10.00058,1.237802,0.02154782,21.03053,-25.32825,-10.63359
-9.895236,1.381454,0.7445967,39.1832,-35.98473,-8.610687
-9.11712,0.9217676,0.5961562,27.66412,-23.35114,2.832061
-9.868899,0.8188169,0.9768343,9.80916,-12.28244,-5.938931
-9.684546,-0.05506664,1.369483,18.73282,-27.0229,-11.38931
-10.02213,0.05027823,2.23379,27.1145,-14.40458,-6.045802
-9.619903,0.4884171,2.087744,27.38931,-8.900764,-6.778626
-9.840169,0.2082956,2.212242,28.50382,-5.984733,-9.870229
-9.52174,0.4405331,2.109292,35.57252,-1.450382,-13.03817
-9.911995,0.3423708,2.269703,34.64885,16.73282,-12.31298
-10.25676,0.1628057,2.200271,22.50382,7.847328,-19.85496
-9.885659,0.07422025,1.620875,29.55725,14.27481,-10.9542
-10.31662,0.272939,1.810017,16.06107,0.1755725,-14.12214
-9.689334,-0.2011129,1.517924,10.40458,5.442748,-2.687023
-10.23282,-0.3567361,1.719037,5.89313,-5.557252,-6.442748
-9.916783,-0.5889736,2.202666,5.854962,-18.25954,-16.42748
-9.85214,-0.5530606,2.207454,6.961832,-0.5648855,-6.305344
-9.765948,-1.015141,2.217031,-2.572519,-7.89313,-11.54198
-9.715671,-1.106121,2.173935,-2.038168,-1.076336,-8.702291
-9.773131,-1.446098,2.269703,0.3740458,-2.320611,-15.64122
-9.624691,-1.788469,2.341529,7.427481,11.19084,-10.63359
-9.890448,-1.96564,2.264915,9.167939,4.641222,-13.63359
-9.674969,-2.006341,1.987187,6.816794,9.885496,-12.0916
-9.718064,-2.176329,2.252944,6.122138,0.2519084,-9.511451
-9.507375,-2.501941,1.984793,2.748092,-0.4122138,-12.89313
-9.581595,-3.009511,2.379837,17.03817,10.05344,-3.946565
-9.176975,-2.341529,1.716643,9.274809,14.79389,-1.282443
-9.49301,-2.578555,2.013524,15.82443,13.77863,1.534351
-9.758766,-2.624045,1.716643,5.221374,7.19084,0.9389313
-9.643845,-2.449268,1.582567,5.961832,6.503817,0.4580153
-9.665392,-2.231396,1.592144,9.519084,4.89313,7.038168
-9.787497,-2.298434,1.357512,3.419847,2.015267,3.458015
-9.883265,-2.044648,1.584962,2.29771,-4.740458,4.320611
-9.701305,-1.970428,1.651999,-0.3740458,1.335878,6.931298
-9.878476,-1.788469,1.632845,-2.282443,-2.198473,10.81679
-9.82341,-1.565808,1.520318,-8.832061,2.221374,11.9313
-9.97185,-1.61848,1.525106,-16.0916,0.961832,13.51908
-9.988609,-1.513135,1.541866,-20.32825,1.389313,18.38931
-10.03889,-1.249773,1.683124,-20.12214,-5.679389,15.0229
-10.20888,-0.7350199,1.192312,-17.73282,5.335878,23.38931
-9.715671,-0.5626374,1.620875,-4.793893,-6.259542,17.38168
-9.964667,0.1125275,1.731008,2.465649,-3.977099,17.58015
-9.916783,0.8954314,1.443704,5.160306,2.030534,34.21374
-9.758766,1.714248,1.321599,-4.198473,-2.900763,22.87786
-9.832987,1.814805,1.474828,-12.80916,4.862596,21.98473
-9.555259,2.554613,1.352724,-17.10687,8.259542,26.13741
-9.476251,3.193865,1.182736,-19.43511,22.05343,29.48092
-9.516952,3.507505,1.225831,-25.0,2.366412,15.76336
-9.315839,3.706224,1.06542,-18.16031,7.48855,13.63359
-9.136273,3.742137,1.113304,-11.74809,4.877862,10.23664
-9.315839,3.718195,0.9983821,2.267176,4.969466,0.01526718
-9.052477,3.857059,1.11091,5.633588,3.801527,2.740458
-9.179369,3.773262,0.8259995,5.832061,-2.916031,-1.564886
-9.409213,3.737349,0.7733272,14.90076,-3.610687,-0.4122138
-8.992621,4.144363,0.7565677,14.48855,2.267176,4.816794
-9.19134,4.331111,0.7493851,3.251908,-5.70229,-2.977099
-9.224859,3.842694,0.9313444,-1.946565,-9.717557,-10.81679
-9.437943,3.428497,1.120486,-7.465649,-3.526718,-19.32825
-9.306262,3.155558,1.144428,-4.70229,-0.1832061,-23.91603
-9.65821,2.892196,1.673547,-3.793893,-3.748092,-18.92366
-9.67018,2.607286,1.659182,-6.534351,-5.931298,-21.64886
-9.684546,2.018312,1.774103,-3.290076,-4.030534,-20.93893
-9.615114,1.58975,2.087744,1.221374,-14.54962,-17.91603
-10.07001,1.403002,1.501164,6.38168,17.44275,-2.343511
-9.928755,0.5530606,1.944092,-22.29008,-21.74809,-9.748092
-9.861717,-0.01197101,1.637634,-8.549619,-5.755725,-12.89313
-10.1179,-0.3423708,1.175553,6.59542,20.55725,-10.9084
-10.16817,-0.1053449,1.659182,14.60305,7.053435,-9.78626
-9.617508,-0.4692635,1.400608,5.389313,40.08397,-9.854961
-10.45308,-0.4836287,1.651999,15.75572,-33.35878,-6.030534
-10.11311,-0.1915361,1.649605,19.40458,-2.022901,-1.183206
-9.734824,-0.3351882,1.927332,22.45802,-16.47328,-6.603054
-9.998186,-0.2896984,2.262521,14.0458,-4.229008,-5.251908
-9.921572,-0.004788403,2.073379,3.122137,-11.82443,-2.473282
-9.41879,-0.07900865,2.549825,-2.351145,-11.8626,-4.022901
-9.725247,-0.3734955,2.755726,-8.40458,6.961832,1.015267
-10.03649,-0.5554548,2.456451,-10.58779,-15.82443,-1.671756
-8.858546,-0.5147533,2.559402,-0.8778625,4.923664,6.412214
-9.940725,-0.4979939,2.96881,-2.664122,-1.664122,4.160306
-10.31422,-0.4141969,2.75812,4.603054,-3.221374,5.206107
-9.016563,-0.5123591,2.030283,7.931298,-14.87023,-2.10687
-9.449914,-0.1747767,3.409343,16.74046,22.61832,7.015267
-9.509769,-0.09337386,2.77488,11.73282,-24.12977,-13.67939
-9.210494,0.3591303,2.468422,6.045802,7.274809,-0.832061
-9.694122,0.605733,3.46441,23.74809,6.099236,1.854962
-9.639056,1.00317,3.423708,12.15267,15.62595,9.129771
-10.01016,0.7230489,3.339911,15.26718,10.9542,1.305344
-10.00776,0.8571242,3.313575,5.832061,21.43511,3.10687
-9.5385,1.089362,2.72939,-3.541985,-11.87023,4.328244
-9.816227,0.7158663,2.717419,-11.15267,-14.23664,-3.78626
-9.595961,0.7541735,3.057395,1.900763,2.961832,0.648855
-9.315839,0.9768343,3.201048,0.9160305,2.992366,3.51145
-9.653421,1.113304,3.167529,-1.480916,16.83206,-0.6564885
-9.351752,0.8595184,2.693477,-4.78626,13.0916,-3.824427
-10.50576,0.7254431,2.585738,7.419847,-3.526718,-5.312977
-9.928755,0.7613561,2.169147,11.19084,6.312977,4.496183
-9.868899,0.5482722,1.405396,12.76336,-9.984733,-3.816794
-9.138668,-0.5171475,0.9935937,29.36641,-1.160305,-26.03817
-10.44351,-0.7876924,2.066196,18.22901,27.0458,-2.053435
-10.52012,0.09337386,1.721431,7.198473,2.755725,2.664122
-10.0341,-0.1532289,1.695095,-8.725191,-10.45802,-0.9770992
-9.196129,-0.06703765,0.9983821,-7.099236,-2.236641,-1.480916
-10.3238,0.1747767,0.7637503,1.175573,5.038168,2.908397
-9.837775,0.3878607,0.830788,-4.19084,5.954198,-3.061069
-10.07241,0.4477157,0.7565677,-7.343512,5.870229,2.916031
-10.29507,0.3519476,0.9935937,-6.885496,0.519084,-4.427481
-9.979033,0.3830723,0.8140285,-10.30534,-4.748092,0.129771
-10.13705,0.4046201,0.8571242,-25.50382,2.70229,3.435115
-10.34295,0.1939303,0.9504981,-27.49618,-2.625954,5.954198
-9.871294,0.3950433,0.8882488,-24.99237,-10.83206,8.473283
-10.53688,0.6512229,0.9241618,-31.44275,-10.25954,11.03817
-9.694122,0.5147533,1.218649,-49.55725,-22.9542,-2.244275
-9.655815,-0.05985504,2.06859,-37.63359,-27.73282,-1.549618
-8.848969,-0.7469909,2.200271,-25.03053,-17.25191,11.67939
-9.502586,-0.6033388,3.232172,-25.27481,-3.229008,11.05344
-9.993398,-0.8595184,4.03423,-22.24427,-18.51145,13.76336
-9.370906,-0.4261679,4.592079,-6.435114,-26.34351,6.946565
-8.746018,-0.5386954,3.859453,11.44275,5.442748,-5.458015
-9.14585,-0.1771709,3.801992,17.19847,8.938931,-5.564886
-9.267955,0.248997,4.046201,3.19084,-4.396946,6.832061
-9.217676,-0.617704,3.792415,6.282443,-7.480916,2.389313
-9.691729,-0.8714894,3.526659,13.80153,11.16794,-10.9084
-9.143456,-0.02873042,2.480393,25.9313,31.32825,-17.19847
-10.2831,0.7733272,2.801216,35.06107,37.69466,6.610687
-9.605537,1.49877,2.329558,14.96947,-5.167939,-0.6183206
-9.995792,0.4333505,2.190695,11.57252,-11.43511,-6.374046
-9.593566,0.3136404,2.762909,20.03053,0.9236641,0.2366412
-10.00537,0.7158663,2.942474,14.32061,2.290076,-6.030534
-9.516952,0.9600749,2.303222,17.91603,1.038168,1.900763
-9.65821,0.8020576,2.458845,17.80916,1.854962,4.045802
-10.02213,0.6248866,2.5187,16.39695,-4.061069,-2.916031
-9.919178,1.098939,2.293645,16.58779,3.496183,4.419847
-9.639056,1.606509,2.310405,13.70992,-7.40458,6.778626
-9.497798,0.9409212,2.377442,1.549618,-5.007634,-3.610687
-9.722853,0.7613561,2.336741,-6.320611,-2.549618,0.7480916
-9.631873,0.8571242,2.3535,-10.51145,-3.419847,-2.435115
-9.801862,0.6919243,2.497152,-14.37405,2.068702,1.412214
-9.694122,0.5434838,2.403779,-8.137404,3.916031,0.480916
-9.746795,1.007959,2.676718,-4.290076,2.824427,1.732824
-9.859323,0.9074024,2.56419,-2.374046,1.763359,-0.1755725
-9.595961,0.641646,2.501941,2.641221,-1.625954,-4.61832
-9.679757,0.8331822,2.60968,4.763359,-0.6870229,-2.259542
-9.564836,0.7924808,2.521094,2.221374,0.9694656,0.3129771
-9.816227,0.7613561,2.56419,-4.236641,-0.4351145,2.412214
-9.543288,0.7661445,2.659958,-8.648855,-3.534351,2.480916
-9.097966,0.6919243,2.379837,-10.77099,9.549619,4.885496
-10.50815,0.6991069,2.631228,-13.9771,2.030534,5.236641
-9.478644,0.7134721,2.231396,-12.33588,-6.29771,4.480916
-9.660604,0.8020576,2.578555,-14.65649,-1.984733,2.603053
-9.770737,0.7278373,2.341529,-19.03053,-1.465649,3.603053
-9.68694,0.6991069,2.442086,-20.67939,-2.389313,5.389313
-9.502586,0.5147533,2.576161,-22.66412,-0.02290076,2.564885
-9.97185,0.4692635,2.916138,-15.69466,-2.564885,1.656489
-9.679757,0.1867477,2.870648,-1.374046,-3.564885,-1.580153
-9.600749,0.4716577,2.777274,8.549619,3.610687,0.4351145
-9.576807,0.4572925,2.777274,13.15267,-3.206107,-6.435114
-9.73243,0.4405331,2.748544,17.01527,0.2290076,-4.824428
-9.667787,0.5961562,2.717419,16.67175,0.519084,-3.824427
-9.82341,0.7134721,2.695871,13.40458,0.9923664,-2.80916
-9.765948,0.7613561,2.779668,7.656488,-3.183206,-1.664122
-9.593566,0.8140285,2.633622,0.1984733,-3.343511,3.320611
-9.588778,0.8188169,2.604892,-7.328244,0.4198473,4.580153
-9.703699,0.629675,2.755726,-11.83969,1.320611,3.427481
-9.586384,0.6272808,2.695871,-9.839695,1.931298,4.870229
-9.720459,0.641646,2.779668,-6.557252,-2.435115,2.59542
-9.720459,0.6512229,2.822764,-3.10687,-0.740458,1.885496
-9.703699,0.6105214,2.868254,-1.381679,-3.091603,0.09160305
-9.598354,0.6320692,2.920926,1.763359,-2.80916,-1.557252
-9.576807,0.6392518,2.930503,2.70229,-0.9312977,-1.618321
-9.519346,0.7206547,2.851494,-0.4274809,3.40458,1.335878
-9.653421,0.7445967,2.786851,-1.641221,2.51145,0.7022901
-9.715671,0.7182605,2.813187,-1.938931,0.4427481,1.48855
-9.655815,0.7278373,2.868254,-2.40458,2.938931,1.351145
-9.610326,0.8164227,2.837129,-2.053435,-0.6946565,0.6183206
-9.588778,0.7637503,2.600103,-4.236641,4.015267,0.6717557
-9.497798,0.7517793,2.578555,-6.129771,4.412214,0.9694656
-9.794679,0.6631939,2.822764,-7.351145,3.427481,0.04580153
-9.77792,0.6584055,2.753332,-6.496183,1.083969,-1.229008
-9.818622,0.4405331,2.75812,-5.503817,-1.381679,-1.824428
-9.698911,0.225055,2.63841,-2.0,-2.229008,-3.175573
-9.665392,0.2920926,2.542642,1.259542,-2.832061,-2.473282
-9.753978,0.4429273,2.616863,4.091603,-2.236641,0.09923664
-9.885659,0.4237737,2.755726,3.198473,5.282443,-1.137405
-9.730036,0.320823,2.477999,2.648855,-0.870229,-3.244275
-9.768343,0.308852,2.521094,4.694656,-2.480916,-1.244275
-9.674969,0.5410896,2.839523,3.755725,-1.770992,0.2824428
-9.531317,0.617704,2.612074,-0.5954198,-0.9160305,2.954198
-9.595961,0.6703765,2.906561,-5.022901,-1.51145,4.473282
-9.639056,0.5530606,2.822764,-8.335877,-1.083969,4.793893
-9.672575,0.6679823,2.753332,-7.763359,0.6641222,4.419847
-9.543288,0.6368576,2.856283,-7.259542,-0.5648855,2.679389
-9.689334,0.5530606,2.662352,-5.801527,-0.2671756,0.8549618
-9.627085,0.6392518,2.583344,-1.938931,4.038168,0.08396947
-9.655815,0.5506664,2.712631,1.076336,1.78626,0.1450382
-9.694122,0.6488287,2.626439,3.740458,1.335878,-0.6183206
-9.488221,0.7350199,2.767697,4.10687,0.3282443,-0.8091603
-9.674969,0.5985504,2.813187,2.21374,-2.045802,-0.8625955
-9.703699,0.6248866,2.741361,0.2900764,-4.076336,-0.07633588
-9.361329,0.6895301,2.686294,-1.236641,1.022901,-0.8015267
-9.713276,0.6105214,2.954445,-1.480916,1.045802,-0.5725191
-9.639056,0.5386954,2.791639,-0.6793893,2.083969,-0.8549618
-9.631873,0.6775591,2.964022,1.519084,0.8167939,0.9160305
-9.710882,0.6153098,2.889802,1.519084,0.8244275,1.244275
-9.569624,0.7110779,2.741361,1.648855,1.381679,1.671756
-9.622296,0.7398083,2.825158,2.061069,1.908397,2.122137
-9.509769,0.794875,2.96881,1.763359,2.022901,-0.08396947
-9.653421,0.902614,2.796427,0.7938931,0.4351145,1.709924
-9.385271,0.9840169,2.815581,-0.0610687,2.992366,4.580153
-9.679757,1.086968,2.791639,-6.80916,-0.2213741,4.229008
-9.184157,1.192312,2.63841,-14.46565,8.320611,8.40458
-10.34295,1.091756,2.782062,-23.72519,11.01527,11.58015
-9.923966,1.039083,2.238579,-23.96947,-4.030534,2.946565
-9.928755,1.06542,2.501941,-13.09924,-6.534351,6.442748
-7.33344,1.491588,2.681506,-14.21374,20.41985,5.725191
-10.22803,1.134852,2.813187,-43.0687,-6.274809,9.770992
-9.411607,0.7134721,2.03986,-33.03817,-7.816794,-6.625954
-10.06044,0.4261679,1.996764,-14.63359,23.9313,-5.145038
-10.17057,0.5770026,2.073379,-12.0229,-2.374046,-8.396947
-9.957485,0.6727707,2.099715,1.045802,3.89313,-4.625954
-10.06762,0.6224924,2.662352,8.59542,24.67939,2.587786
-9.983821,1.165976,1.929727,0.6793893,-0.9236641,-14.59542
-10.08677,0.332794,2.640805,11.55725,-23.34351,-1.824428
-9.758766,0.2442086,2.008735,13.14504,-8.229008,4.572519
-10.10832,0.002394202,2.485181,-4.10687,-3.335878,-7.496183
-9.634268,-0.248997,2.164358,-0.7938931,-22.34351,-17.37405
-9.92636,0.1221043,1.632845,-6.648855,20.58779,22.32061
-9.947908,-0.1436521,2.274492,-4.236641,6.824428,-9.053435
-9.43076,-0.9696517,2.422932,-33.39695,-1.251908,-10.19847
-9.859323,0.004788403,2.375048,-26.45802,6.778626,13.20611
-9.342175,-0.3543419,2.839523,-22.37405,-12.01527,12.10687
-9.648633,-0.2585738,3.251326,-33.70229,-10.25191,16.19084
-10.11311,-0.4812346,3.663129,-15.23664,-10.21374,16.03053
-9.883265,-0.1795651,2.341529,8.305344,-15.0229,-0.7251908
-9.344569,0.2873042,1.810017,12.20611,-10.43511,7.984733
-9.744401,0.8619126,2.377442,22.72519,-17.51145,-8.229008
-8.365341,0.8164227,2.5187,29.0687,8.984733,-8.160305
-10.41238,0.6679823,4.082114,38.38931,0.09160305,-7.648855
-9.234436,1.343147,3.394978,40.8168,-26.71756,-11.03053
-9.751583,1.254562,4.175488,39.1832,-0.3435115,-23.8855
-9.081207,1.017536,3.052607,34.58779,-22.99237,-17.41985
-9.25359,0.1723825,3.20823,32.38168,-3.648855,-21.25954
-9.215282,0.3351882,2.959233,32.54198,1.992366,-18.1145
-9.660604,-0.344765,3.41892,20.83206,4.328244,-24.86259
-9.5385,-0.5913678,3.663129,17.32825,13.35878,-17.63359
-9.497798,-0.782904,3.203442,35.92366,-1.129771,-24.41221
-9.411607,-1.374272,3.165135,53.98473,14.1374,-32.32061
-9.998186,-1.462857,2.990358,69.22137,19.45038,-16.75573
-10.00776,-1.218649,2.748544,76.77863,-0.007633588,-18.74809
-9.32781,-1.235408,2.576161,69.72519,-13.54198,-22.12977
-9.923966,-0.7445967,2.724602,61.37405,21.89313,-16.36641
-9.471462,-0.1484405,3.117251,56.87786,-6.10687,-25.37405
-9.576807,0.1843535,2.47321,56.35115,17.0,-16.22901
-10.1562,0.9337386,1.879448,55.59542,20.59542,-2.748092
-9.356541,0.320823,2.930503,60.42748,-21.49618,-28.94657
-8.743625,0.02394202,3.569755,66.55725,2.022901,-13.9313
-9.945514,0.2705448,3.852271,21.43511,37.67176,-12.82443
-10.1179,0.6560113,3.706224,22.87786,-41.22137,-15.71756
-9.260772,0.06943185,2.1883,10.29771,26.9542,16.0
-8.53054,0.2322376,2.185906,-12.92366,-8.061069,-12.60305
-10.60871,-0.2442086,2.449268,-32.07634,18.9542,17.26718
-8.975863,0.009576806,2.600103,-26.74809,7.969466,9.198473
-9.785102,-0.9648633,2.770091,-45.08397,-8.557252,-2.587786
-10.64223,-0.5889736,2.355895,-33.77099,-15.51908,11.55725
-10.17296,-0.1915361,2.185906,-48.23664,7.48855,6.908397
-9.287108,0.4572925,1.628057,-46.9771,-6.885496,-1.412214
-10.31901,0.5147533,1.960851,-42.62595,13.59542,15.81679
-9.375694,-0.1125275,2.679112,-25.16031,1.801527,5.954198
-9.414001,-0.3902549,3.65834,-13.39695,-24.79389,-14.44275
-10.12747,-0.8259995,3.821146,-15.0916,-7.351145,1.473282
-10.4459,-0.3303998,2.688689,-23.38168,14.10687,20.76336
-8.317456,0.05746084,2.001553,-23.87023,-37.22137,1.78626
-10.45308,-1.182736,2.317587,-55.28244,2.458015,18.22137
-9.136273,-1.149217,2.99754,-43.10687,-3.412214,7.694656
-9.507375,-1.486799,3.311181,-55.44275,5.152672,20.93893
-10.16817,-0.902614,3.201048,-62.74046,-20.35878,3.229008
-10.0772,-0.3064578,1.807622,-69.37405,12.48092,28.45038
-8.468291,0.2561796,0.8954314,-79.79389,11.66412,22.05343
-11.77468,0.6847417,0.3040636,-79.41985,11.59542,24.42748
-9.979033,-0.4213795,0.8092402,-64.09924,-18.51145,16.41221
-10.37647,-0.8212111,2.094927,-48.78626,-8.656488,-9.984733
-10.83137,-0.4908113,1.752556,-29.22901,3.763359,13.83206
-9.696517,-0.272939,1.66397,-28.19847,-23.23664,2.061069
-9.624691,-0.5291186,1.671153,-49.64122,-18.96947,-8.526717
-8.798691,-0.4740519,2.054225,-60.66412,5.015267,25.0916
-10.47463,-0.8858546,1.486799,-71.82442,-2.671756,19.26718
-9.763555,-0.6536171,1.908179,-69.61069,2.687023,29.39695
-9.176975,0.7422025,0.806846,-88.64886,25.42748,9.580153
-10.40999,0.7733272,0.7015011,-96.77863,-1.435114,34.58015
-10.10832,1.000776,1.757344,-104.4351,5.152672,22.27481
-10.04607,0.770933,1.486799,-68.61069,-2.305344,17.06107
-9.562442,0.1651999,1.999158,-57.22137,1.770992,-6.89313
-10.02692,0.6847417,2.504335,-22.92366,-2.427481,3.832061
-10.00537,1.539472,2.794033,-5.603054,-4.206107,0.2213741
-10.24479,0.9050082,1.381454,-11.20611,17.50382,15.60305
-10.30464,-0.9481038,0.9121908,-10.47328,-7.78626,-13.77099
-9.868899,-1.335965,1.326388,-14.50382,-12.87023,-9.679389
-9.083601,-0.7326257,2.178724,2.824427,-13.77863,-15.49618
-9.490616,-0.8571242,2.786851,4.259542,7.160306,4.564886
-9.651027,-0.545878,3.284845,15.67939,-10.77099,19.0916
-11.8513,-0.4381389,2.908955,23.70992,16.07634,6.40458
-8.408437,0.05506664,1.752556,12.89313,-29.01527,-15.41221
-10.26155,0.1197101,1.082179,-1.167939,24.83206,-0.870229
-8.528147,0.1149217,2.32477,13.17557,-20.51145,-10.49618
-10.53449,-0.5075707,3.426103,23.82443,-6.29771,-18.96947
-9.459491,-0.3711013,3.038242,47.96947,-13.25191,-7.51145
-11.50653,-0.6464345,1.980005,77.74809,38.45802,-4.793893
-9.428367,-0.6033388,1.532289,63.67176,21.51908,10.42748
-10.22324,-0.9121908,1.163582,75.16794,-28.89313,-36.00763
-9.715671,-0.6200982,2.059013,61.13741,28.94657,-19.9084
-9.543288,0.03351882,1.898602,23.24427,-8.557252,1.068702
-10.25676,-0.5482722,3.414132,6.625954,-22.83206,0.02290076
-10.60871,-0.1436521,3.411737,-9.748092,-20.77863,7.549618
-8.899248,-1.115698,2.157176,7.290076,-35.8168,-3.51145
-9.651027,-0.6560113,2.075773,20.54198,-7.015267,-15.69466
-9.294291,-0.8116343,2.078167,36.85496,22.29771,-17.60305
-10.09635,-0.08858546,3.277662,40.06107,17.0229,-17.07634
-9.267955,-0.1412579,3.354277,49.78626,-3.824427,-19.55725
-9.5385,0.1340753,3.562572,48.0,5.374046,-5.221374
-11.1881,0.2106898,2.573767,47.67176,34.80153,8.664123
-8.951921,-0.5626374,2.27928,31.51145,-17.51908,-21.45038
-8.901642,-1.103727,2.403779,28.20611,-12.36641,-32.16031
-10.07241,-0.9696517,3.004723,31.39695,18.19847,-1.839695
-9.976639,-0.8714894,3.009511,28.8855,8.549619,-12.73282
-8.978256,-0.629675,3.263297,5.465649,-4.580153,3.015267
-9.176975,-1.041478,3.411737,19.76336,-24.47328,-4.832061
-10.11071,-0.4357447,3.155558,20.05343,10.20611,1.946565
-9.232041,-0.830788,2.715025,20.24427,-3.083969,-5.10687
-9.244013,-0.1029507,2.231396,17.0,-1.0,-5.923664
-10.07001,0.2633622,2.537854,31.1145,12.56489,-17.54962
-9.904813,-0.3471592,3.201048,40.59542,4.847328,-12.66412
-9.519346,0.06943185,2.952051,39.62595,-5.068702,-19.9084
-10.35492,-0.3495534,3.37343,47.54198,1.870229,-26.38168
-8.851364,-0.1268927,2.772485,28.01527,-8.083969,-10.16794
-9.354146,-0.4788404,2.75812,24.64122,-0.5496183,-11.45802
-9.576807,-1.225831,2.703054,27.05343,11.44275,-20.25191
-9.947908,-1.036689,3.0143,13.61069,3.557252,-11.29771
-9.634268,-1.321599,2.920926,-4.610687,2.900763,-3.29771
-9.64145,-1.764527,2.664747,-6.221374,-2.175573,12.67176
-9.488221,-1.831564,2.858677,-14.43511,-2.770992,5.435114
-9.081207,-1.223437,2.669535,-29.78626,18.29008,5.030534
-9.986216,-0.4477157,2.959233,-25.9313,15.46565,17.83969
-10.13226,0.3663129,2.018312,-41.96183,-8.374045,12.22901
-10.22564,0.213084,2.573767,-26.43511,-12.53435,15.96183
-9.895236,0.1364695,2.355895,-17.59542,2.076336,18.25954
-10.08198,0.2896984,1.92015,-26.17557,-9.480916,11.48092
-9.701305,-0.3280056,1.687912,-46.62595,-11.25954,1.847328
-9.816227,-0.9313444,2.449268,-43.54198,-6.61832,2.320611
-9.124303,-0.8810662,3.572149,-21.76336,-12.83969,14.83969
-9.251195,-0.7158663,3.797204,-33.99237,10.19084,8.885496
-9.464279,-1.154005,3.430891,-21.9771,2.022901,-5.778626
-9.469068,-1.359907,3.287239,-17.90076,0.389313,-12.03053
-9.385271,-1.290475,2.331953,-20.36641,0.259542,11.01527
-9.41879,-1.728614,2.13084,-7.503817,-16.46565,2.740458
-9.583989,-1.750161,2.087744,1.862595,4.992366,-0.07633588
-8.99741,-0.7996634,1.972822,-5.480916,8.419847,-1.480916
-10.47942,-0.2896984,2.983175,-6.290076,-4.015267,3.419847
-10.26873,-0.004788403,4.209007,9.458015,-5.221374,9.641221
-9.136273,-0.6751649,3.414132,-5.160306,2.801527,2.938931
-9.385271,0.1173159,2.643199,-14.07634,-1.59542,16.36641
-9.847352,-0.08619126,2.482787,-14.07634,-7.251908,-1.610687
-9.801862,-0.2920926,1.893814,-27.16031,0.4732824,-2.793893
-9.710882,-0.2705448,1.697489,-27.20611,-4.717557,3.89313
-10.49139,-1.130063,1.659182,-19.23664,5.801527,1.610687
-9.509769,-1.517924,2.446874,-21.35114,0.7633588,1.045802
-8.899248,-1.747767,3.124433,-5.259542,-5.732824,14.0916
-9.062054,-1.106121,2.89459,-0.8091603,28.40458,50.21374
-9.519346,-0.9050082,2.841918,5.610687,-29.68702,-15.52672
-9.674969,-0.3926491,2.746149,17.05343,1.778626,-14.9313
-9.481039,-0.344765,2.839523,19.94657,4.839694,-5.129771
-9.49301,-1.247379,3.349488,19.16794,-31.32061,-29.91603
-9.55047,-1.290475,3.457227,23.67939,23.41985,9.541985
-9.859323,-0.2657564,2.832341,15.03053,-1.931298,0.3358779
-9.543288,0.04070143,2.214637,7.198473,-9.015267,2.961832
-9.873688,0.2657564,1.714248,-5.343512,10.19847,4.832061
-10.07241,-0.09337386,2.806004,0.4503817,-3.885496,-1.442748
-9.332599,0.7206547,2.813187,16.86259,-0.3435115,5.839694
-9.437943,0.3806781,2.990358,6.954198,-9.916031,-9.671756
-9.445126,-0.08379706,3.682282,8.282443,-4.725191,-12.43511
-9.610326,0.3687071,3.727772,11.55725,-0.7938931,-10.39695
-9.627085,0.1316811,3.011906,4.671756,4.038168,-9.152672
-9.643845,0.237026,2.870648,-15.72519,-1.458015,5.603054
-9.050082,-0.8355764,2.547431,-6.450382,-13.20611,-15.57252
-9.864111,-1.546654,2.827552,-6.259542,-6.473282,-13.85496
-8.106767,-0.842759,3.155558,-37.99237,26.0,2.59542
-10.02931,-1.462857,3.138798,-39.44275,0.2824428,19.17557
-9.179369,-1.017536,3.550601,-30.28244,-5.114504,23.35878
-9.361329,-1.520318,3.864242,-19.47328,-0.832061,14.66412
-11.75553,-0.830788,3.102885,3.694656,20.54962,31.14504
-9.957485,-0.4070143,2.885013,7.900764,-18.16794,7.229008
-8.406042,0.1675941,1.11091,0.3969466,5.244275,1.206107
-11.40119,-0.6536171,2.547431,14.90076,3.160305,-12.75572
-9.425972,-0.1699883,3.0143,35.9313,-8.496183,-25.21374
-9.950302,-0.3423708,2.829947,59.03817,-6.992366,-21.38168
-10.05565,-1.039083,1.810017,69.46565,10.19084,-21.15267
-9.639056,-1.946486,1.819593,59.0687,-13.12977,-31.58015
-9.074024,-1.716643,2.231396,56.64122,19.25954,-36.76336
-10.01016,-1.946486,2.973598,46.09924,12.49618,-27.0229
-9.830592,-2.425326,2.588132,18.71756,-9.687023,-21.67175
-9.356541,-1.546654,2.329558,14.10687,5.0,12.64122
-9.375694,-2.418144,2.47321,-9.267176,-14.15267,17.56489
-9.303867,-2.573767,2.626439,-14.03053,-4.450382,27.49618
-9.234436,-0.914585,2.616863,-26.03817,24.32825,15.62595
-11.3557,0.2992752,3.588908,-13.8626,21.22901,30.29008
-9.892841,0.4477157,3.543418,4.816794,-7.152672,10.79389
-9.167398,0.5195417,2.983175,-23.24427,-12.61832,7.312977
-9.698911,0.5123591,2.736573,-25.18321,-8.480916,11.21374
-9.660604,-0.03112462,2.214637,-29.9313,-4.320611,5.015267
-9.701305,-0.2418144,1.884237,-39.0687,-1.053435,2.664122
-9.569624,-1.101333,1.99437,-44.23664,-1.946565,-8.419847
-9.962274,-0.8331822,2.207454,-31.91603,16.13741,12.53435
-10.68293,-1.192312,3.955221,-41.24427,-7.748092,5.664122
-9.500193,-1.204283,4.474763,-19.0458,-0.9923664,21.92366
-8.793902,-1.752556,3.409343,22.21374,-0.7175572,-4.48855
-9.3733,-1.268927,2.808398,20.66412,-9.351145,-22.58779
-9.263166,-1.122881,3.342306,36.99237,0.9923664,1.160305
-9.502586,-1.371878,2.671929,28.01527,1.763359,-8.80916
-9.696517,-1.477222,2.954445,24.10687,14.58779,-10.41985
-9.844957,-0.05267244,2.990358,25.67175,1.824428,-11.63359
-8.389283,0.4070143,2.832341,7.40458,-0.7709923,-16.77099
-10.70208,0.320823,3.342306,13.76336,7.160306,15.90076
-9.129091,0.8523358,3.306392,4.984733,-8.473283,6.503817
-9.627085,0.605733,2.928109,0.7633588,-0.7251908,4.312977
-9.500193,1.034295,3.052607,-28.42748,8.450381,12.34351
-9.062054,0.7517793,3.339911,-42.71756,-7.709924,8.984733
-9.241618,0.272939,3.423708,-53.40458,-20.18321,3.671756
-9.284714,0.1268927,3.991134,-46.58779,-13.07634,2.007634
-9.782708,0.4620809,4.213795,-33.65649,-16.74809,13.87786
-8.999804,0.4429273,2.975993,-34.8855,-8.763359,27.30534
-9.61272,-0.4836287,2.528277,-33.96183,5.160306,15.84733
-10.42914,-1.106121,2.557007,-24.83206,2.59542,7.717557
-8.255207,-0.2681506,3.296816,-22.87023,9.458015,12.80916
-9.825804,-0.7182605,3.986346,-7.61832,-5.40458,9.007633
-9.01417,-0.332794,3.624821,-2.618321,2.145038,4.717557
-12.23437,-0.1843535,3.526659,16.90076,36.65649,23.66412
-7.716512,-0.3040636,0.9361328,15.09924,-3.572519,-11.74809
-11.04206,0.02154782,0.1125275,36.80916,86.89313,-8.129771
-8.781932,0.2705448,1.929727,38.65649,22.65649,3.801527
-10.40759,0.2992752,0.2873042,47.79389,32.16031,-7.740458
-8.944737,0.4692635,-0.7852982,53.12977,35.16031,9.740458
-10.38605,0.01675941,-1.999158,39.80153,69.22137,3.19084
-7.939173,-0.2442086,-3.533842,26.85496,46.00763,-3.320611
-7.5561,-0.6224924,-4.000711,-3.251908,71.01527,-12.07634
-7.302315,-0.545878,-4.151546,-13.0229,42.87023,-1.091603
-8.099585,-0.237026,-5.89213,-13.94656,-1.427481,-10.67176
-9.378088,0.08619126,-6.327875,-2.458015,24.69466,9.229008
-9.021352,0.1699883,-6.203377,-9.19084,-21.1145,9.328244
-9.150639,0.3375824,-5.580884,-4.229008,-22.99237,4.923664
-11.17134,0.1532289,-5.518635,-8.274809,-31.60305,-1.045802
-11.56639,0.1484405,-4.809951,-7.61832,-29.63359,-20.27481
-8.698134,-0.4070143,-4.127604,-7.709924,18.37405,-7.137404
-8.336611,0.08858546,-5.228937,-19.09924,58.03817,12.73282
-8.53054,0.6919243,-7.465121,-38.76336,105.9618,26.57252
-7.012617,1.764527,-7.331046,-17.30534,-12.87023,-3.320611
-5.726931,1.429338,-7.187394,-5.847328,46.90076,13.17557
-5.688623,1.917756,-8.010999,26.25954,47.55725,15.81679
-4.374207,1.37906,-9.066842,28.77099,14.03817,6.183206
-5.161899,1.149217,-9.409213,18.26718,2.503817,16.25191
-4.774038,1.362301,-9.490616,23.14504,-36.12977,9.21374
-6.098032,0.3543419,-9.579201,10.50382,-37.53435,6.053435
-5.913678,0.09337386,-8.597578,10.80916,-68.92367,0.4580153
-7.611167,-0.2178724,-7.405266,-4.419847,-74.37405,10.8626
-8.336611,-0.2777274,-5.33907,-0.1832061,-86.61832,-4.847328
-9.988609,-0.2896984,-3.306392,-5.366412,-82.15267,1.641221
-9.739613,-0.2178724,-2.20506,9.0,-82.32825,-1.267176
-9.342175,0.06943185,-0.5554548,18.55725,-83.01527,7.40458
-9.969456,0.2418144,1.958457,23.03053,-70.29008,-2.358779
-9.557653,0.7493851,2.355895,24.30534,-20.35114,13.06107
-8.583213,1.513135,3.91452,2.938931,-42.13741,9.549619
-9.241618,1.400608,4.714183,-6.198473,-41.20611,-0.129771
-8.300697,1.309628,4.898537,-12.99237,-35.41985,-5.847328
-7.687782,0.4118027,5.736507,-9.938931,-10.24428,-5.503817
-8.568848,0.06464344,5.568913,1.969466,3.564885,-12.38931
-8.135497,0.03830723,5.355829,11.37405,13.48092,-39.13741
-8.834604,-0.3040636,4.910508,5.78626,39.75573,-34.0229
-9.124303,-0.9911995,4.065354,-2.625954,35.94656,-22.70992
-9.349358,-1.546654,3.100491,-6.61832,31.38168,-37.58779
-8.860941,-2.193089,2.540248,-11.35878,34.96183,-24.0458
-9.974244,-3.107674,1.575385,-19.05343,21.12214,-47.0916
-9.227253,-4.055778,0.4285621,-8.473283,12.64122,-15.24428
-9.184157,-4.194642,0.5363012,-10.28244,17.55725,-16.72519
-8.35337,-5.102044,-0.1388637,-0.648855,7.572519,-8.610687
-9.215282,-5.049371,-0.3351882,-5.770992,27.13741,-1.267176
-8.485051,-4.675876,-0.7038953,-14.20611,-3.541985,-1.78626
-8.815451,-5.066131,-1.42455,-13.96947,-0.1908397,9.549619
-8.973468,-5.410896,-0.770933,-7.267176,3.625954,14.17557
-9.296685,-4.642357,-0.914585,6.38168,-3.259542,28.45802
-9.358934,-3.96001,-0.9193734,6.977099,-10.54962,33.62595
-10.10353,-3.033453,-0.3806781,5.946565,-2.305344,35.49618
-9.646238,-2.590526,-0.3687071,8.80916,-1.503817,33.45038
-9.878476,-1.541866,-0.2873042,4.89313,-4.755725,36.20611
-10.06283,-0.7757214,-0.1125275,8.335877,-12.8626,16.0458
-10.05804,-0.2442086,-0.225055,-1.793893,20.07634,6.977099
-10.08198,0.03830723,0.2154782,0.6641222,-8.366412,33.05344
-9.895236,0.2394202,-0.225055,-1.610687,17.72519,41.45038
-9.909601,1.644816,-0.7278373,-1.480916,12.77099,34.58015
-9.938332,1.848324,-0.5650316,4.89313,-12.28244,17.47328
-9.691729,2.624045,-0.1891419,13.26718,3.977099,26.40458
-9.701305,2.920926,-0.04309563,-2.221374,4.183206,22.94657
-9.425972,3.521871,-0.1628057,-2.748092,-0.3587786,16.77863
-8.597578,3.787627,-0.04548983,12.57252,-7.862596,16.10687
-9.251195,4.084508,-0.3471592,16.80916,-9.519084,1.229008
-9.138668,4.046201,-0.4620809,-1.206107,10.60305,11.9313
-9.227253,4.630386,-0.3543419,-20.48855,-9.091603,-9.832061
-9.586384,3.904943,-0.1053449,-31.74046,-25.83969,-22.46565
-9.346964,3.39019,0.770933,-32.90076,-37.42748,-32.67176
-9.081207,1.879448,1.984793,-43.80916,-13.54962,-47.82443
-10.14423,1.824382,3.505111,-1.541985,-1.458015,-14.78626
-8.513782,0.4860229,2.691083,0.9923664,14.44275,-45.57252
-9.976639,0.3040636,1.910573,33.9542,95.76336,6.870229
-13.07713,0.4501099,0.6847417,2.458015,12.58779,-25.81679
-10.93432,0.5841852,-2.372654,10.28244,88.70229,14.84733
-10.54406,-0.04309563,-1.177947,25.73282,-29.43511,-13.03053
-9.911995,0.3519476,-1.130063,11.61832,18.31298,-4.946565
-10.31901,0.1388637,-1.608904,20.41221,6.587786,-9.458015
-9.536105,-0.4165911,-2.166753,3.007634,0.9236641,-2.114504
-9.780313,0.09097966,-1.802834,-2.114504,-18.67939,-8.541985
-9.957485,-0.5386954,-1.302446,-6.076336,-25.41221,-6.961832
-8.494628,-0.593762,-0.7565677,-0.9923664,-20.19084,9.236641
-9.11712,-0.5985504,-0.4812346,-0.3435115,-30.03053,-5.167939
-10.77151,-1.09415,0.6129156,6.351145,-31.05343,-6.053435
-9.545682,-0.4692635,0.56982,9.908397,-20.77099,-1.145038
-8.865729,-0.3687071,1.666364,6.183206,-21.0,4.076336
-9.78989,-0.5961562,1.61848,3.70229,15.54198,9.091603
-10.68053,-0.9672575,1.73819,-3.832061,-28.26718,18.80153
-8.980651,-0.6392518,2.166753,17.10687,-27.0458,1.206107
-10.06044,0.06943185,1.244985,17.41221,21.0687,2.641221
-9.270349,1.371878,1.853112,-0.1679389,0.6946565,5.664122
-10.17296,1.970428,1.915361,-57.80916,17.41221,4.732824
-9.873688,1.082179,1.659182,-87.26717,-21.42748,6.80916
-10.30225,-0.5075707,1.733402,-73.79389,-4.587786,16.80153
-9.651027,-0.9528923,2.035071,-27.59542,-14.71756,-10.72519
-9.94312,-0.1340753,0.8930372,15.0458,27.81679,15.63359
-9.119514,0.02154782,0.4357447,-4.244275,12.61069,-10.81679
-10.02931,-0.2059013,1.194707,-22.66412,19.30534,-10.83969
-12.16973,-0.320823,2.063802,-41.67176,26.78626,18.31298
-10.26155,-0.7852982,2.003947,-40.74809,6.167939,-0.8244275
-10.46266,-1.410185,1.414973,-6.664122,-12.48855,0.4274809
-9.291897,-1.367089,1.027112,23.01527,-6.221374,16.91603
-10.05804,-1.398214,0.593762,48.42748,-22.64122,-8.099236
-9.854534,-1.647211,0.6224924,56.57252,-9.152672,-23.77099
-10.47224,0.4381389,0.7757214,57.65649,21.63359,-8.923664
-9.217676,1.426944,1.25935,20.58015,-14.80916,-19.75573
-10.37408,1.381454,1.352724,-27.75573,1.709924,5.358778
-9.756371,1.084573,1.407791,-64.63359,-15.0229,17.25191
-10.47703,0.6320692,0.7924808,-90.31298,-5.015267,27.75573
-9.967062,0.5363012,1.043872,-102.5878,-1.587786,23.26718
-10.24718,0.3303998,1.436521,-102.0305,-7.931298,14.35878
-9.923966,0.1053449,1.980005,-79.8855,-7.61832,16.28244
-9.737218,0.1556231,1.695095,-53.08397,-3.633588,19.98473
-9.981427,0.521936,1.063026,-41.28244,-9.435115,8.854961
-9.186552,0.1939303,0.4309563,-28.98473,0.8473283,7.38168
-10.17775,-0.770933,1.012747,-22.96947,33.77099,2.740458
-11.10431,0.2633622,-0.08619126,-16.92366,81.93893,19.0687
-10.89122,0.4860229,-1.529895,37.59542,-0.1679389,-10.22137
-8.133103,1.434127,-0.9768343,63.48855,-60.0229,-2.564885
-10.00058,1.288081,-0.1436521,43.99237,-34.51145,-9.083969
-9.708488,0.4548983,-0.1532289,47.12977,12.42748,-2.427481
-11.72441,0.3974375,0.6679823,72.64886,-10.07634,4.938931
-9.318233,0.08140286,-0.9696517,65.9542,-32.05344,-18.13741
-11.00136,-0.1532289,0.05027823,67.51908,-10.47328,-13.67176
-10.21366,0.05506664,0.6200982,94.91603,-23.39695,-17.44275
-9.560047,0.6512229,0.9768343,83.21374,5.473282,0.961832
-10.06522,0.6200982,1.532289,67.32825,-21.29008,-20.03817
-9.662998,0.4141969,2.142811,67.0687,-17.96947,-12.73282
-9.775525,0.5674258,2.738967,64.51908,-19.20611,-15.73282
-8.796297,0.2011129,1.49877,47.30534,-9.564885,-4.587786
-10.42914,-1.055843,1.821988,56.21374,-11.34351,-44.64122
-9.73243,-0.9864111,1.596933,54.39695,10.48855,-19.57252
-9.344569,-1.000776,2.185906,46.61069,-1.29771,-24.28244
-10.18493,-1.130063,2.851494,30.54198,17.77099,-9.664123
-9.425972,-1.113304,2.719813,25.60305,-12.28244,-8.656488
-10.39802,-1.151611,2.633622,1.068702,19.94657,9.702291
-10.24718,-1.182736,2.142811,12.00763,-11.32824,-6.664122
-9.536105,-1.223437,2.080561,17.65649,-5.641222,-14.0229
-9.655815,-0.8930372,1.951274,21.0229,-4.419847,-17.63359
-10.51773,-0.7996634,2.834735,12.32824,-16.84733,-22.59542
-9.107543,-1.022324,3.258508,29.83206,-12.07634,-14.25191
-9.459491,-1.256956,3.998317,24.19084,6.19084,5.030534
-9.555259,-0.8571242,3.864242,7.709924,2.389313,5.854962
-10.02213,-0.806846,3.157952,30.98473,36.47328,33.29008
-10.4459,0.02633622,2.185906,18.23664,1.419847,-0.9465649
-8.372523,-1.376666,1.821988,-0.740458,-19.44275,-27.28244
-9.344569,-0.5506664,2.331953,-14.80153,26.36641,3.580153
-9.694122,-1.249773,3.040636,-25.52672,-21.80916,-6.503817
-8.985439,-1.527501,2.86586,-34.94656,0.2442748,4.763359
-10.35253,-1.654393,2.636016,-41.35878,5.763359,14.91603
-10.46027,-0.6751649,1.726219,-43.93893,13.38168,26.41221
-8.995016,0.08858546,1.290475,-69.23664,4.137404,29.58015
-10.0317,0.1819593,1.297657,-49.0458,21.10687,18.76336
-10.60153,-0.7230489,1.541866,-26.8855,-8.519084,11.10687
-9.900024,-0.2753332,2.183512,-12.30534,-9.106871,-7.007634
-9.713276,0.2657564,1.580173,2.061069,14.53435,19.55725
-11.65019,0.6129156,0.56982,-15.34351,-0.1374046,6.984733
-9.586384,0.06703765,0.4070143,-36.1832,5.641222,-11.23664
-9.519346,-0.2346318,0.7206547,-55.94656,22.32061,9.40458
-9.397242,-0.2226608,-0.1412579,-55.57252,51.43512,11.98473
-10.1179,-1.06542,-1.33357,-32.0,47.07634,4.175572
-10.4459,0.009576806,-2.32477,-47.34351,60.15267,3.778626
-8.51857,1.04866,-3.083732,-41.89313,8.839695,-20.71756
-8.59279,0.8882488,-3.708618,-23.64886,51.64122,11.1374
-7.639898,1.137246,-3.172317,-6.061069,10.50382,-4.908397
-8.42759,1.465251,-4.144363,-5.839694,-3.854962,-3.755725
-8.760384,1.197101,-4.249708,-20.60305,-15.57252,-19.85496
-10.11071,0.4429273,-3.009511,-19.59542,-47.67939,-18.51908
-10.16099,0.8355764,-2.806004,-10.81679,-19.75573,6.167939
-10.65899,1.125275,-3.907337,-20.67175,-0.832061,-27.68702
-11.75314,0.1891419,-5.530606,2.412214,28.55725,3.091603
-11.58315,0.06943185,-1.934515,-51.41985,-52.36641,-27.06107
-10.17296,-0.8020576,-0.605733,-26.03817,-81.65649,2.29771
-9.907207,-1.843535,-0.1795651,-2.396947,-88.30534,-58.70992
-11.03966,-0.1795651,1.070208,20.77863,37.69466,-0.9236641
-9.701305,-1.101333,1.647211,-9.78626,-42.33588,-15.22901
-9.196129,-0.8643068,2.815581,-0.2900764,-27.61832,5.633588
-9.289502,-0.914585,3.734955,-9.725191,-32.96183,-19.54198
-8.748413,-1.431733,4.039018,-5.427481,-11.61069,-6.282443
-9.119514,-1.690306,3.852271,0.6183206,7.335878,1.931298
-9.332599,-1.312023,3.655946,4.91603,24.51145,-2.267176
-9.23683,-1.302446,3.22499,0.2061069,15.25191,-0.0610687
-9.368511,-1.249773,2.597709,-10.32824,38.0687,-6.70229
-9.921572,-1.417367,2.545036,-14.0916,26.25191,1.870229
-10.5704,-1.441309,1.182736,-23.53435,55.75573,7.80916
-10.18015,-1.417367,-0.2298434,-17.74809,3.29771,21.83969
-9.730036,-0.6679823,-0.7805098,-9.977099,3.923664,35.68702
-9.615114,-0.4764462,-1.276109,-1.274809,25.09924,3.29771
-10.1993,-1.046266,-1.149217,21.45038,-7.923664,0.4045802
-10.84573,-0.2418144,-0.9409212,11.50382,26.87023,9.625955
-10.01973,0.6823475,-0.9672575,19.24427,-16.9542,31.77099
-10.00297,0.1867477,-1.063026,-2.381679,-10.12214,14.46565
-10.01973,1.096544,-0.1053449,5.251908,9.61832,13.1374
-10.24239,1.280898,-0.5865794,17.72519,-23.49618,21.51145
-9.713276,2.238579,0.1029507,22.96947,-23.65649,41.08397
-9.334992,2.973598,0.2801216,13.37405,-20.12977,30.46565
-9.765948,4.414908,1.549049,14.17557,-9.496183,-4.290076
-8.832211,3.141193,0.7350199,-2.282443,-32.87786,15.28244
-9.124303,3.713407,1.510741,-7.870229,-4.793893,-0.6335878
-9.380483,3.29921,1.599327,0.1984733,-3.236641,-13.41221
-9.557653,3.16274,1.649605,5.450382,-4.389313,-31.76336
-9.528923,2.346318,1.575385,-0.4885496,-4.458015,-41.52672
-9.562442,1.628057,1.364695,-2.038168,3.801527,-24.39695
-9.737218,1.206678,1.613692,-13.30534,10.24428,-24.74809
-10.32619,-0.002394202,1.546654,-0.2824428,-2.923664,-27.09924
-9.883265,-0.3160346,1.587356,0.9465649,-12.83969,-19.31298
-9.91439,-0.6751649,1.881843,-2.122137,-6.778626,-23.39695
-9.677363,-1.321599,1.99437,-10.66412,-11.42748,-25.23664
-9.720459,-1.647211,2.169147,-7.801527,-11.16794,-22.48092
-9.368511,-2.468422,2.154782,-7.59542,9.442748,-7.770992
-10.23282,-1.908179,1.90339,-5.900764,26.55725,15.09924
-10.24479,-2.343924,1.431733,0.1679389,-19.15267,8.78626
-9.662998,-1.817199,1.474828,-3.19084,5.625954,17.53435
-9.859323,-1.714248,1.790863,1.763359,-9.305344,17.14504
-9.674969,-1.106121,2.075773,4.572519,-1.290076,21.59542
-9.964667,-0.557849,2.025495,2.648855,-4.21374,15.92366
-9.710882,-0.332794,2.286463,1.458015,-13.41985,9.900764
-9.68694,0.2106898,2.461239,-2.175573,-1.389313,9.488549
-9.854534,0.4620809,2.614468,-9.091603,-7.778626,13.15267
-9.890448,0.6200982,2.892196,-17.80153,-5.022901,8.580153
-9.868899,1.479617,2.224213,-33.01527,2.748092,22.27481
-9.114726,0.7422025,2.351106,-44.65649,-29.19847,-0.5572519
-9.698911,0.5291186,3.038242,-47.66412,24.67175,10.83206
-9.215282,0.581791,3.457227,-41.68702,5.114504,35.60305
-9.260772,-0.09816227,3.428497,-47.19847,15.9542,-8.824428
-9.653421,0.2537854,3.076549,-35.91603,39.14504,25.82443
-9.52174,0.1149217,2.808398,-58.76336,19.07634,0.4961832
-10.02213,0.3591303,3.033453,-52.66412,26.25954,28.1145
-13.10107,1.209072,1.374272,20.75573,94.57252,77.64122
-9.188946,0.4572925,-0.2992752,-28.08397,-47.98473,-24.01527
-9.883265,1.300052,0.6200982,-27.40458,-18.47328,3.503817
-6.751649,3.093309,-2.169147,-27.07634,70.47328,-20.9542
-9.722853,2.978387,-1.84593,-30.77099,-18.38168,14.8855
-12.32535,3.236961,0.1101333,35.29008,27.31298,39.36641
-12.90954,2.667141,-2.509123,65.9542,-37.00763,13.80916
-12.17452,3.581726,-2.451663,56.61832,8.312977,-30.98473
-11.1091,2.722207,-2.013524,19.62595,23.13741,-37.06107
-10.68293,1.628057,-1.896208,-0.1374046,4.229008,-25.0687
-7.532158,0.1197101,-2.841918,-4.526718,-52.22901,-12.46565
-8.130709,-0.1915361,-2.329558,-24.96947,-27.79389,7.236641
-9.289502,0.8475474,-1.235408,-31.05343,-11.96183,9.603053
-10.7356,0.2825158,0.1053449,-28.61832,-39.30534,11.64122
-10.38365,1.687912,0.8978256,9.312977,-97.61069,28.0229
-8.11395,1.549049,1.642422,-9.854961,-51.49618,3.030534
-8.480263,1.089362,2.789245,2.473282,21.9771,0.6717557
-9.885659,1.458069,3.246537,7.015267,23.86259,-11.87023
-11.35091,1.237802,1.810017,4.801527,18.05343,2.946565
-9.160215,1.42455,0.6464345,6.351145,3.916031,30.87786
-9.727641,1.077391,-0.09337386,6.343512,3.519084,-7.870229
-10.4052,0.533907,1.347936,26.61069,-75.14503,-17.32061
-9.344569,1.292869,1.422156,63.67176,6.908397,-11.61832
-8.640674,1.922544,1.553837,59.89313,-7.61832,-13.19084
-11.29584,2.015918,1.084573,59.14504,8.427481,2.282443
-9.911995,1.429338,0.7326257,47.26717,0.1526718,3.854962
-9.890448,-0.1029507,0.308852,28.65649,-10.25954,-29.03817
-10.59195,-0.6943185,1.769315,46.19084,-20.82443,-33.26717
-9.983821,0.2346318,1.697489,17.48092,5.992366,-13.21374
-10.0748,0.4189853,1.795651,-10.56489,-6.366412,-2.832061
-9.603143,-0.09097966,1.970428,-25.32825,0.5267176,6.870229
-9.864111,-0.1915361,1.980005,-41.64122,16.59542,7.748092
-9.844957,-0.5841852,1.889025,-29.92366,-7.740458,2.099237
-9.55047,-0.782904,2.315193,-6.549618,4.206107,3.007634
-9.677363,-0.5985504,2.801216,12.45038,-8.862596,4.21374
-10.13466,0.1316811,3.325546,18.16031,-9.709924,11.79389
-9.715671,-0.04788403,1.915361,22.85496,-11.83969,-9.396947
-9.509769,0.5482722,1.479617,25.74809,8.40458,9.480916
-9.605537,0.4501099,1.127669,29.99237,-6.145038,-7.633588
-10.32859,0.7517793,1.300052,60.65649,4.541985,-10.12214
-10.12747,0.3160346,1.841141,75.32061,4.40458,-34.86259
-10.15141,0.7469909,1.505953,94.54198,2.59542,-20.75573
-11.20965,0.890643,1.35033,103.0076,-2.549618,-17.83969
-9.404425,0.07422025,0.8858546,82.25191,-23.49618,-16.59542
-9.435549,-1.280898,1.419762,71.65649,-17.0687,-42.03817
-10.38126,-1.221043,2.65517,80.41222,12.64886,-30.10687
-9.23683,-0.6392518,1.836353,80.53435,3.282443,-20.67175
-10.20169,-0.9002198,2.1883,64.12214,0.05343511,-7.229008
-10.29986,-0.1436521,2.276886,47.1145,16.52672,2.59542
-9.710882,-0.6488287,2.475605,31.35878,-23.40458,4.282443
-9.804255,-0.890643,3.29921,29.74046,-20.28244,7.923664
-9.466674,-0.1628057,2.128445,33.29008,6.068702,6.732824
-10.14902,-0.05267244,2.013524,54.25191,-27.54962,-16.71756
-9.44752,1.352724,2.054225,65.48855,28.35114,-3.435115
-9.138668,1.766921,2.185906,58.94656,-7.465649,-9.229008
-9.727641,1.580173,2.260126,40.58779,6.19084,-9.259542
-9.330204,1.769315,2.406173,21.37405,-1.923664,-14.41985
-9.349358,1.355118,3.189077,17.52672,-19.26718,-3.40458
-9.591172,1.225831,3.371036,9.511451,18.48092,-17.9542
-11.88482,1.007959,2.624045,5.480916,-3.091603,9.40458
-9.581595,1.189918,1.987187,-13.00763,-19.9084,-16.34351
-9.856929,0.8044518,1.450886,-11.21374,22.06107,3.572519
-9.76116,0.9720459,1.975216,-40.08397,-5.977099,10.91603
-9.923966,0.4189853,2.667141,-44.9771,-1.328244,10.48855
-9.006987,0.5363012,3.201048,-45.96947,-21.68702,3.961832
-9.172187,0.02394202,3.354277,-57.44275,12.0229,19.29771
-10.76912,0.605733,3.392584,-55.17557,14.0,30.0458
-10.09635,0.4572925,1.704672,-60.22901,25.64122,12.33588
-8.437167,1.142034,1.247379,-69.75572,6.91603,29.19084
-10.24239,1.228225,1.426944,-51.0458,20.62595,18.03817
-10.08677,0.9744401,2.238579,-43.29008,-15.26718,6.145038
-10.22803,1.177947,2.504335,-25.33588,1.824428,-5.160306
-9.715671,1.180341,2.770091,-29.70229,-4.259542,-5.358778
-8.798691,1.051055,1.522712,-31.32825,8.061069,8.816793
-9.337387,0.6919243,0.8882488,-52.10687,9.167939,7.183206
-10.56082,0.4716577,1.233014,-80.96947,-6.900764,15.48092
-10.37886,0.6224924,1.54426,-87.61832,19.08397,25.41221
-9.61272,0.4046201,1.067814,-120.9618,7.450382,20.22137
-11.11628,0.545878,0.3711013,-145.855,12.22901,41.52672
-10.00058,1.122881,1.175553,-130.0916,8.694656,40.96183
-10.04368,0.9576807,1.553837,-113.855,1.725191,21.43511
-9.981427,0.7422025,2.391808,-93.09924,4.366412,27.45038
-9.516952,1.091756,2.568978,-85.68702,10.58779,21.19084
-9.607931,0.581791,2.772485,-66.16031,-3.80916,5.312977
-9.672575,0.9241618,2.82037,-37.33588,-0.2824428,9.610687
-10.3238,1.029507,2.657564,-28.34351,8.198473,2.51145
-8.911219,0.5243302,2.408567,-42.53435,-16.39695,0.5114504
-9.706094,0.8882488,1.426944,-50.66412,34.86259,24.21374
-10.43633,-0.1101333,1.517924,-56.93893,7.473282,6.70229
-9.258378,-0.05027823,1.853112,-51.1145,-3.961832,3.503817
-9.885659,-0.1149217,2.566584,-31.99237,0.4198473,7.091603
-9.445126,-0.3734955,2.669535,-11.27481,-0.740458,1.603053
-10.34295,-0.01675941,2.384625,-0.9083969,1.564886,5.29771
-10.9415,0.3016694,1.94888,14.41221,14.25191,12.49618
-9.531317,0.260968,0.6919243,17.41221,-11.74046,-2.145038
-10.81461,0.5051765,0.3016694,22.41221,26.41221,-3.740458
-8.904037,0.2082956,1.75495,49.25191,-16.63359,-14.17557
-10.28788,0.9193734,1.848324,51.41221,10.9771,-5.435114
-9.648633,0.4501099,1.853112,60.09924,-15.1374,-14.25191
-11.42034,0.4237737,1.467646,70.24428,21.70229,-17.54198
-10.12268,0.6871359,0.6823475,54.73283,-13.9084,-5.48855
-9.832987,-0.7086837,1.278504,74.16794,-41.07634,-40.0458
-9.19134,-0.7445967,1.817199,49.1145,25.93893,-30.32061
-10.53449,-0.6823475,2.437297,51.14504,-17.29008,6.229008
-9.957485,-0.2801216,2.885013,13.9084,-14.19084,5.175572
-11.5616,0.2346318,2.734178,12.28244,8.923664,21.19084
-8.020576,-0.5123591,1.841141,14.47328,-38.85496,-4.48855
-11.13304,0.5075707,1.201889,25.56489,39.93893,16.35114
-8.532935,0.7996634,1.412579,44.80153,-31.44275,-10.9542
-10.73081,0.521936,3.32794,43.67176,-5.137404,-32.65649
-9.476251,0.9217676,3.1795,64.54962,-7.770992,-3.10687
-9.124303,0.5602432,2.808398,65.72519,-23.83969,-28.92366
-10.28549,-0.3806781,2.418144,88.83969,20.83206,-13.60305
-9.94312,-0.6823475,1.09415,87.85497,11.61069,-28.45038
-9.557653,-0.6655881,1.687912,89.55725,-6.89313,-34.70992
-10.16099,-0.4165911,2.420538,73.56489,-6.0,-28.14504
-9.572019,-0.4237737,2.41575,63.24427,0.4961832,-18.65649
-10.05086,-0.5267244,2.844312,51.14504,-11.77863,-7.045802
-9.864111,-0.3734955,3.371036,38.74809,17.20611,6.732824
-10.53449,-0.225055,3.330335,39.44275,-6.748092,11.22901
-8.264784,-0.7781156,1.228225,64.771,-22.85496,-22.38168
-11.8082,0.1915361,1.915361,84.35878,19.9084,-24.08397
-9.516952,0.806846,1.917756,109.458,-30.67175,-29.23664
-9.758766,1.319205,2.181118,83.58015,36.28244,-8.007633
-10.43872,1.788469,1.872266,49.41985,-22.43511,-12.71756
-12.01889,0.4333505,2.331953,54.29771,-15.73282,-15.67939
-9.318233,0.6488287,1.989582,38.17557,-10.29771,-14.83969
-9.816227,-0.1077391,2.37026,46.38168,-28.81679,-24.90076
-8.959103,-0.3303998,2.832341,20.40458,35.33588,-18.96183
-9.73243,-0.1795651,2.753332,2.274809,-2.916031,1.061069
-9.548077,-0.2657564,2.647987,-15.63359,8.458015,15.22137
-12.15297,0.0,2.066196,-27.83206,22.9542,-3.381679
-7.915231,1.022324,0.806846,-19.83969,-5.854962,14.96947
-10.21366,1.594538,0.6129156,-36.05344,10.05344,8.358779
-9.562442,0.9888053,1.201889,-33.45802,-1.603053,0.5877862
-10.73081,0.6655881,2.185906,-29.66412,-22.60305,-13.06107
-10.01734,0.6368576,2.734178,-6.091603,-12.10687,6.114504
-10.72124,0.9696517,2.106898,-52.61832,10.96183,29.00763
-9.406818,0.6344634,1.280898,-79.28244,-0.1374046,0.129771
-8.640674,0.05506664,1.034295,-119.5802,26.06107,26.0229
-10.45548,0.1292869,0.6009446,-144.0153,16.51145,39.80153
-9.593566,-0.4908113,0.2873042,-147.0992,8.122137,37.34351
-10.37647,0.6488287,0.3758897,-142.5114,44.92366,17.71756
-9.933543,0.581791,0.8738836,-81.22137,-19.98473,7.534351
-8.896853,0.3902549,0.8834604,-69.16794,40.99237,9.610687
-8.645462,0.02394202,0.1604115,-55.45038,7.290076,-4.129771
-7.565677,-0.3184288,-0.6153098,-45.0916,15.92366,-7.221374
-9.974244,0.08140286,-0.5865794,-31.50382,-32.0,-42.53435
-10.58716,-0.3998317,1.084573,-11.57252,-16.63359,35.53435
-11.49696,0.05746084,0.3519476,-11.47328,-45.36641,-3.267176
-12.22958,-0.3854665,2.003947,15.80916,-34.00763,1.633588
-11.88721,-0.3303998,2.679112,1.770992,-2.969466,-12.72519
-9.572019,-0.248997,2.530671,13.20611,13.19084,10.29008
-9.344569,0.1412579,2.245761,19.92366,-3.641221,-1.396947
-10.93432,-0.03112462,2.0231,12.33588,12.77099,-1.954198
-9.07163,0.6703765,1.386243,-8.893129,-5.244275,9.465649
-9.722853,0.5410896,1.584962,-16.45802,-5.328244,6.877862
-10.34056,0.1316811,2.102109,-10.19847,-9.358779,-1.122137
-9.964667,0.4596867,2.554613,-2.732824,9.854961,6.763359
-9.449914,0.2585738,2.15957,-3.10687,-17.37405,-5.89313
-10.02213,0.2226608,2.806004,-1.541985,-2.862595,0.6412213
-9.653421,0.5602432,2.288857,11.18321,0.389313,-5.740458
-9.411607,0.3423708,2.482787,9.778625,7.114504,-3.419847
-9.64145,0.5554548,2.628834,11.64886,2.045802,-2.641221
-10.31662,0.2825158,2.384625,15.60305,1.442748,-5.70229
-9.270349,0.9576807,1.625663,12.58779,7.603054,14.07634
-9.564836,0.6560113,1.719037,-4.862596,12.79389,-7.160306
-10.82419,0.2873042,1.731008,2.519084,-16.67175,-3.984733
-10.14663,0.3567361,1.826776,2.908397,-3.641221,-8.625955
-9.677363,0.6153098,1.975216,2.160305,0.6259542,2.030534
-9.957485,0.4046201,2.511518,-2.984733,-81.90076,-12.25191
-9.385271,0.1484405,3.189077,-3.175573,34.65649,2.251908
-9.651027,0.3878607,3.10528,6.671756,-5.305344,6.068702
-9.959879,0.1699883,3.210624,2.129771,-17.38931,-0.961832
-9.291897,0.4118027,3.160346,4.389313,10.30534,1.083969
-9.459491,0.5770026,3.033453,4.061069,-0.2748091,9.78626
-9.722853,0.7589619,3.428497,2.740458,7.229008,4.862596
-9.074024,1.177947,3.435679,2.045802,9.534351,8.854961
-8.944737,1.546654,2.425326,-9.679389,18.58015,5.633588
-10.1562,1.005565,2.516306,-27.56489,8.793893,-14.90076
-12.50013,0.4860229,3.754108,-4.21374,10.73282,12.15267
-11.06361,0.4189853,1.584962,-24.93893,30.0,-4.08397
-9.974244,0.5674258,1.197101,-0.259542,25.92366,-5.839694
-10.35971,0.6847417,1.393425,12.0229,-2.89313,0.07633588
-9.698911,0.3950433,1.055843,5.114504,-13.19084,-1.458015
-9.653421,0.1843535,1.091756,9.885496,-11.56489,-0.8625955
-9.907207,0.4692635,1.640028,8.251908,-1.992366,8.763359
-9.165004,0.878672,1.244985,-3.977099,-6.870229,-0.610687
-9.773131,0.6512229,1.364695,-11.93893,-9.717557,3.633588
-9.361329,0.6847417,1.695095,-5.557252,-18.45802,-2.282443
-9.241618,0.890643,1.975216,-0.007633588,-14.53435,2.045802
-8.968679,0.8619126,2.317587,-4.977099,-0.2824428,-0.2977099
-9.73243,0.4668693,2.578555,-8.068703,-1.259542,-9.78626
-9.334992,0.09816227,2.578555,-0.2442748,-8.396947,-4.824428
-9.485827,0.3543419,2.777274,0.2519084,7.885496,4.282443
-10.0748,0.5746084,3.572149,1.099237,-11.9313,12.96183
-9.267955,0.1532289,3.572149,-12.19084,-7.70229,-3.900763
-9.476251,0.213084,3.315969,-5.717557,-2.366412,10.49618
-9.97185,0.3232172,3.536236,-2.641221,-1.152672,2.900763
-8.726865,0.3758897,3.308787,-3.038168,-10.83206,-7.229008
-9.234436,0.9457096,2.887407,-0.7938931,2.961832,1.274809
-9.583989,1.115698,3.026271,1.832061,13.70992,9.122137
-9.339781,1.82917,2.789245,-17.61832,17.12977,14.62595
-9.409213,2.513912,2.284068,-41.0,22.30534,18.92366
-9.631873,2.054225,2.135628,-61.54962,7.183206,15.0687
-9.998186,1.537078,2.552219,-63.96183,8.664123,22.08397
-9.564836,1.347936,2.647987,-60.00763,-2.0,8.19084
-7.955932,1.266533,2.6839,-44.33588,5.435114,16.25954
-11.07079,1.122881,3.055001,-11.37405,-7.091603,-12.0
-9.536105,0.2561796,3.275268,2.778626,-11.12977,3.389313
-8.695741,0.1580173,2.116474,2.244275,9.885496,-11.62595
-10.56082,-0.1077391,2.422932,11.12214,17.25954,-6.068702
-9.825804,0.7134721,2.856283,-0.7251908,13.25954,-6.954198
-9.667787,0.5722142,2.659958,-13.69466,0.2366412,-3.083969
-9.598354,-0.07900865,3.086126,-27.9313,-12.48855,1.946565
-10.24,0.296881,2.724602,-13.98473,12.78626,17.45038
-9.473856,-0.2657564,2.133234,-14.9084,-12.40458,-15.67939
-9.648633,0.2920926,2.446874,-8.931297,12.12977,15.36641
-9.205706,0.6655881,1.501164,-13.93893,-1.832061,4.61832
-10.14423,0.2011129,2.200271,4.251908,9.442748,-2.351145
-9.892841,0.2920926,2.561796,17.51908,-0.3587786,-0.5954198
-9.404425,0.7445967,2.647987,28.13741,0.09923664,-6.19084
-9.651027,0.9433154,2.566584,41.9771,-26.99237,17.80153
-10.41478,0.7493851,1.582567,40.50382,20.73282,-17.83206
-9.840169,0.4118027,1.328782,43.65649,11.54962,-7.580153
-10.10593,0.4740519,1.292869,45.0,-6.732824,-10.93893
-8.848969,-0.1580173,1.970428,49.9542,-6.603054,-29.73282
-10.30943,0.3375824,2.602497,55.0916,9.022901,-4.183206
-10.51533,0.56982,2.238579,41.33588,-17.18321,-13.0916
-9.380483,0.5961562,2.212242,18.54198,-15.47328,11.59542
-10.63504,0.2561796,1.96564,7.687023,3.549618,-17.33588
-9.188946,0.3543419,1.556231,25.47328,-7.21374,1.984733
-9.765948,0.7398083,1.264138,22.78626,1.656489,-6.282443
-9.160215,0.8571242,1.786075,43.0,-6.221374,-17.64886
-10.3214,0.2059013,2.463634,54.9771,-6.435114,-21.36641
-9.938332,0.1675941,2.477999,76.8168,-10.19084,-24.64122
-10.22564,-0.1005565,1.565808,79.08397,20.87023,-31.33588
-10.11311,-0.1173159,1.556231,81.21374,-10.16031,-19.09924
-9.43076,-0.7613561,1.644816,92.34351,10.25191,-24.44275
-10.02692,-0.5410896,1.788469,63.16031,13.03817,-2.78626
-10.16099,-0.7685388,1.999158,42.0916,2.564885,-16.17557
-9.679757,-1.161188,1.912967,38.27481,-6.030534,-14.03053
-10.28788,-0.5985504,1.177947,2.541985,12.16031,-4.679389
-10.54406,-0.56982,1.865083,-0.740458,-12.19847,-2.129771
-9.768343,-0.04788403,1.414973,7.10687,10.72519,11.33588
-10.37168,0.7374141,1.084573,5.923664,6.862596,-1.824428
-9.634268,0.01197101,1.352724,60.62595,-0.9236641,-14.26718
-9.703699,-0.225055,1.158794,49.62595,-0.3358779,1.862595
-9.880871,0.2035071,1.549049,54.45802,13.69466,-3.603053
-9.895236,0.08379706,2.090138,33.22137,-13.74809,-0.2366412
-9.674969,0.3064578,2.054225,24.37405,-5.328244,-9.465649
-10.14902,0.5171475,1.240196,18.74809,4.282443,14.77863
-10.12508,0.3615245,0.914585,-11.12977,4.38168,-8.106871
-9.536105,0.3351882,0.770933,-7.587786,-18.50382,13.50382
-8.832211,0.7900866,0.6991069,-36.01527,60.19084,5.862596
-11.09952,0.3280056,0.6991069,-64.72519,-27.24427,5.625954
-9.933543,0.1436521,0.8499416,-97.08397,0.4885496,21.0458
-9.129091,0.6823475,0.4644751,-126.6565,19.82443,-9.251908
-10.02692,1.383849,0.1005565,-72.60305,47.36641,24.74809
-9.792285,1.113304,0.5841852,-43.03053,2.198473,5.221374
-8.781932,0.6631939,-0.1460463,-12.47328,51.74046,20.78626
-8.523358,0.320823,-2.020706,41.06107,35.22901,35.91603
-10.0748,1.35033,-0.8643068,28.13741,-15.77863,5.870229
-10.30225,0.9744401,-1.982399,13.96183,57.51145,-0.480916
-8.645462,1.302446,-2.659958,23.19847,32.8855,7.236641
-8.492233,1.326388,-3.402161,9.969465,17.58015,-7.21374
-9.636662,1.790863,-4.72376,4.671756,-31.50382,6.61832
-10.05086,2.13084,-4.929661,2.717557,-38.12214,8.725191
-9.440337,2.212242,-4.003105,-6.541985,-1.022901,27.61832
-10.3238,1.936909,-4.197036,-3.679389,-12.67939,-4.503817
-8.789114,1.879448,-2.695871,-10.25191,-38.14504,5.862596
-12.07396,2.868254,-2.200271,-12.12214,-23.13741,-10.26718
-10.73081,1.862689,-1.314417,-16.86259,-25.47328,15.35114
-8.214506,2.111686,-1.766921,-3.053435,27.87786,2.450382
-10.17775,1.865083,-1.161188,-3.557252,-50.64885,-26.47328
-10.25676,1.553837,-0.2681506,-15.43511,-17.49618,-6.244275
-10.12508,1.496376,0.4022259,-2.78626,-34.38168,10.67939
-9.52174,1.805228,0.1628057,-5.648855,-2.335878,-4.908397
-10.17057,1.288081,1.300052,-12.70229,-19.80916,-21.72519
-11.2312,0.6847417,2.226608,-24.33588,-0.5038168,-6.740458
-13.60146,0.2801216,0.914585,-23.82443,46.48855,-8.801527
-9.394848,0.9313444,0.1077391,-6.007634,30.61832,-16.74046
-10.07241,0.2801216,0.3016694,-23.9771,-13.41221,-8.267176
-10.64941,0.4429273,-0.4477157,-11.05344,-5.694656,3.748092
-10.55604,0.4908113,-0.2681506,-7.59542,-14.64886,-1.282443
-9.586384,0.4381389,-0.248997,-16.79389,-4.625954,5.839694
-8.494628,0.533907,0.09816227,-30.41221,-13.1374,6.389313
-9.404425,0.28491,0.308852,-43.0,-7.480916,5.641222
-10.15141,0.3519476,1.010353,-43.40458,-22.35114,16.68702
-9.176975,0.4716577,1.982399,-75.38168,-30.36641,13.9542
-9.320627,0.02873042,2.516306,-71.48855,-59.8855,-0.6412213
-9.078813,-0.9217676,2.983175,-68.0687,-7.648855,19.62595
-9.035717,-1.206678,2.813187,-44.77863,-22.86259,19.64886
-10.44351,-0.4213795,3.294421,-47.61069,29.72519,17.65649
-9.921572,0.1556231,3.627216,-3.984733,-28.33588,11.27481
-8.283937,0.4237737,3.409343,-21.50382,14.87023,7.267176
-9.32781,0.9337386,3.61285,-2.946565,8.198473,19.56489
-9.279925,0.6536171,3.754108,-0.2900764,-1.580153,5.541985
-9.332599,1.034295,3.450045,-4.442748,16.55725,1.938931
-9.28232,1.115698,3.742137,0.1145038,-5.679389,-13.19847
-9.212888,0.3184288,3.603274,1.381679,-9.343512,-48.53435
-9.308656,0.7278373,3.172317,11.90076,22.70229,-24.87023
-9.100361,-0.8571242,3.445256,15.35114,-3.007634,-43.03053
-9.459491,-0.9481038,2.624045,15.85496,12.16031,-45.76336
-8.525752,-3.39019,2.252944,11.80916,7.61832,12.76336
-11.24078,-3.359065,2.822764,-21.72519,20.98473,-20.14504
-8.60955,-4.232949,2.430115,16.86259,-36.73283,-3.076336
-9.368511,-3.926491,2.590526,-3.236641,11.74809,-32.32824
-8.576031,-3.260903,2.978387,3.572519,-8.450381,-8.541985
-8.99741,-4.077325,2.782062,-1.877863,-19.28244,-21.29771
-8.686164,-4.000711,3.210624,-14.50382,13.49618,-6.587786
-9.011775,-4.434062,2.808398,-9.770992,1.885496,5.923664
-8.999804,-4.687847,3.421314,2.519084,-18.52672,7.022901
-8.63828,-3.811569,2.743755,-6.221374,18.06107,20.75573
-8.781932,-3.562572,2.138022,-4.48855,5.679389,22.66412
-9.957485,-3.739743,2.643199,7.160306,-8.816793,28.9542
-9.263166,-2.901772,2.559402,7.244275,15.19847,16.96183
-9.342175,-2.501941,2.358289,-2.312977,18.96183,34.0
-9.607931,-1.719037,2.173935,-6.496183,1.030534,28.03817
-10.30225,-0.9289502,1.960851,-2.755725,0.3053435,42.07634
-9.667787,-0.3136404,1.798046,-4.244275,-20.62595,19.51908
-9.603143,0.3184288,1.956063,-0.8778625,13.71756,50.17557
-9.955091,1.644816,1.898602,7.694656,6.312977,41.32824
-9.466674,2.013524,2.138022,17.59542,-10.99237,30.48855
-9.040505,3.349488,1.855506,27.70992,14.0458,38.58015
-9.299079,4.132392,1.173159,30.64122,-6.0,11.24428
-8.719683,4.338294,1.209072,42.85496,-19.54198,5.435114
-8.813056,4.975151,0.8403648,39.24427,2.908397,16.82443
-8.485051,5.33907,0.7733272,22.64122,-14.32061,15.51145
-8.899248,5.097255,0.4788404,19.96947,-7.198473,-3.290076
-8.12592,5.252879,0.6919243,7.80916,0.7862596,0.2213741
-8.556877,5.212177,0.5482722,6.648855,-3.198473,2.091603
-8.583213,5.305551,0.3878607,2.145038,7.183206,3.099237
-8.645462,5.149928,0.3639187,-2.641221,-2.137405,-7.992366
-8.784326,5.137957,0.7517793,-9.893129,-1.419847,-2.778626
-8.681376,5.020641,0.8714894,-20.0229,-1.473282,-7.167939
-8.726865,4.560954,1.249773,-20.69466,0.1603053,-15.75572
-8.836999,4.601655,1.041478,-16.10687,6.519084,-12.07634
-8.975863,4.326323,0.9959879,-20.68702,1.763359,-17.38931
-9.143456,3.751714,1.328782,-16.63359,2.824427,-23.0458
-9.406818,3.46441,1.491588,-7.465649,-4.290076,-29.9542
-9.131485,3.155558,1.563414,-11.12977,-7.557252,-30.68702
-10.37168,1.323994,2.015918,-7.374046,-15.74046,-39.35878
-9.600749,-0.1316811,1.860295,-28.73282,5.748092,-27.32061
-9.603143,-1.276109,2.080561,-24.54962,1.725191,-13.90076
-10.05325,-1.82917,1.429338,-8.61832,4.900764,-28.61832
-10.00058,-2.284068,2.032677,5.977099,-14.61069,-43.51908
-9.727641,-3.191471,2.975993,18.41985,-21.18321,-45.84733
-9.210494,-2.949656,2.166753,17.77863,5.839694,-25.16794
-9.531317,-2.887407,2.588132,16.32825,1.083969,-9.259542
-8.985439,-3.119645,2.540248,4.496183,-4.007634,-3.70229
-9.244013,-3.402161,2.523489,4.122138,11.89313,-6.358778
-9.378088,-3.366248,2.734178,5.21374,-3.167939,1.099237
-9.440337,-3.545813,2.674323,7.70229,2.21374,-1.465649
-8.813056,-3.782839,2.640805,8.229008,1.183206,-8.305344
-9.047688,-3.157952,2.791639,2.70229,17.90076,5.305344
-9.148245,-3.157952,2.664747,1.015267,2.129771,12.87786
-9.416395,-2.791639,2.542642,-6.053435,19.70229,20.77863
-9.706094,-2.516306,2.296039,-11.53435,-5.312977,24.03817
-10.10353,-1.891419,2.451663,-20.41985,8.122137,47.60305
-10.26394,-1.702277,2.070984,-14.52672,-28.51145,29.41985
-10.85292,-1.04866,1.66397,4.854962,9.099236,29.9084
-9.500193,-0.1580173,1.529895,0.1450382,-12.58779,9.274809
-9.758766,0.2992752,2.008735,1.427481,8.526717,15.89313
-9.770737,0.890643,1.762132,0.8015267,-12.42748,1.618321
-10.18972,0.6919243,2.102109,0.870229,-3.839695,-4.763359
-9.442732,0.8834604,2.44448,1.374046,-6.519084,-8.122137
-10.2807,0.56982,3.114856,9.908397,-3.312977,2.977099
-9.021352,1.240196,2.813187,3.557252,-0.4656488,-7.839694
-9.263166,1.156399,3.543418,11.33588,-23.38168,-17.96183
-9.770737,0.6631939,4.134786,13.30534,-22.75573,-31.32825
-9.366117,-0.581791,3.517082,-1.038168,-16.96183,-27.36641
-8.647857,-1.896208,2.834735,-7.259542,3.725191,-50.19084
-9.320627,-2.896984,3.507505,10.37405,5.725191,-25.12214
-8.628703,-3.081338,3.196259,7.48855,24.92366,-28.12977
-8.942344,-3.383007,2.679112,12.10687,17.25191,-25.06107
-9.287108,-3.6751,2.640805,3.854962,17.84733,-16.45802
-9.021352,-4.237737,2.487576,11.70229,1.038168,-14.0916
-8.944737,-4.094085,2.298434,6.832061,4.992366,-9.61832
-8.798691,-4.101267,2.667141,10.37405,2.320611,-8.412213
-8.858546,-3.787627,2.604892,7.770992,8.923664,8.694656
-9.141062,-3.976769,2.614468,14.25954,-2.877863,-1.10687
-8.674192,-3.557784,2.652776,13.0916,15.0458,5.969466
-8.590396,-3.806781,2.56419,23.64886,0.4580153,-0.2748091
-9.119514,-3.754108,3.045424,18.82443,18.34351,-1.80916
-9.251195,-2.971204,2.674323,15.46565,15.87786,13.54962
-9.356541,-2.746149,2.679112,-11.26718,15.38931,23.65649
-9.481039,-2.885013,2.494758,-13.83206,-6.816794,28.35878
-10.3645,-2.784456,2.097321,-11.80916,11.37405,21.80153
-9.581595,-1.857901,1.467646,4.862596,-6.763359,12.07634
-10.25915,-0.8762778,1.278504,6.755725,14.83206,13.23664
-10.52491,0.2322376,0.08140286,-9.122137,34.96947,40.71756
-9.950302,0.7876924,0.6224924,-31.75573,4.10687,12.07634
-11.09952,0.1963245,0.7206547,-17.54962,3.931298,8.78626
-9.342175,0.9720459,0.5841852,-35.1145,-32.12977,17.77099
-10.12029,0.9457096,0.3232172,-35.31298,0.2671756,-1.091603
-10.12508,0.06224924,1.568202,-45.0687,-18.40458,12.62595
-10.72842,0.4692635,1.060631,-51.77863,15.78626,13.85496
-10.02452,0.3591303,1.584962,-50.1832,-38.56488,3.709924
-9.267955,0.5626374,1.182736,-39.0229,5.450382,11.01527
-10.54406,-0.8738836,2.777274,-32.58015,-8.19084,-5.70229
-9.998186,-0.8475474,3.921702,-37.80153,-10.90076,9.045801
-8.049306,-0.9002198,3.579332,-10.12977,-11.29771,-0.8396947
-9.715671,0.248997,3.435679,-19.57252,13.71756,26.61069
-8.947132,-0.06464344,2.959233,-31.28244,-26.32825,24.38931
-9.878476,-0.5243302,2.719813,-36.24427,1.099237,1.847328
-8.932767,0.521936,2.521094,-32.66412,38.96947,15.54962
-11.22402,1.228225,3.689465,-40.83969,4.10687,21.87786
-8.532935,0.7086837,4.601655,-44.91603,-55.52672,-4.954198
-9.332599,0.2944868,4.886566,-26.43511,11.45038,29.55725
-9.157822,0.1891419,4.357447,-20.73282,-30.35878,10.0458
-8.461109,0.3495534,4.297592,-14.35878,2.885496,-4.625954
-9.655815,0.9313444,4.419696,-7.824428,13.45802,13.35878
-9.095572,0.8331822,4.661511,-25.22137,-24.34351,-11.8855
-8.549694,0.3136404,4.893748,-15.45802,-2.175573,-0.3282443
-8.408437,0.213084,4.788404,-18.9542,1.48855,4.717557
-8.508993,0.6344634,4.683059,-14.00763,2.984733,8.061069
-8.860941,0.5434838,5.32231,5.816794,-10.61069,3.320611
-7.920019,-0.06943185,3.481169,1.51145,46.08397,-0.259542
-10.37408,-0.8595184,3.011906,7.099236,28.47328,-3.732824
-9.28232,-0.8595184,3.0143,5.908397,-0.7633588,-4.0
-9.291897,-0.4932055,3.727772,8.603053,11.15267,2.70229
-9.41879,-0.4237737,3.292027,13.64122,4.312977,-2.198473
-9.200917,-0.3567361,3.624821,31.99237,-2.473282,-1.015267
-9.31105,-0.2561796,3.74932,48.06107,-17.21374,-42.17557
-9.579201,-0.3711013,3.289633,34.50382,50.89313,4.167939
-9.414001,-0.2011129,2.224213,35.35878,-32.08397,-4.167939
-10.4483,-0.5530606,3.751714,53.1832,-36.61069,1.824428
-8.492233,-0.05506664,4.225766,50.19847,-43.30534,-35.90076
-8.497022,0.5889736,4.285621,62.44275,10.9084,-15.23664
-8.789114,0.9720459,5.307945,45.48092,-19.49618,-11.89313
-8.74123,0.9720459,5.796362,57.23664,-29.67939,-43.54962
-8.731653,0.6272808,4.5418,64.06107,40.48855,-2.549618
-8.626308,-0.07661445,3.907337,21.57252,-47.19084,-39.40458
-7.967903,-0.5171475,4.443638,17.85496,-6.38168,-26.42748
-8.932767,-0.07661445,5.95438,23.09924,-16.49618,-32.58015
-7.10599,-0.7086837,5.262455,24.59542,23.32061,-11.33588
-10.51533,-0.308852,5.928043,22.41221,19.45038,-20.96183
-7.266402,0.5123591,2.422932,30.30534,37.55725,-1.755725
-9.057265,-0.4357447,3.143587,17.23664,-11.74809,-9.557252
-9.660604,0.1604115,4.680665,37.58779,-20.83969,-30.58779
-8.695741,-0.1699883,4.34787,56.55725,9.80916,-37.0
-8.645462,-0.06943185,4.946421,66.9542,-9.793893,-57.58779
-9.868899,-0.4237737,3.8403,88.96183,32.54198,-45.92366
-8.734048,-1.247379,3.691859,67.37405,-0.2671756,-62.70992
-9.289502,-1.857901,4.022259,80.75572,21.22137,-60.26717
-9.057265,-1.422156,4.168305,72.90076,19.49618,-41.99237
-9.246407,-1.750161,4.118027,66.03817,8.290076,-35.13741
-8.858546,-1.302446,4.089296,49.0916,13.14504,-15.22901
-9.038112,-1.369483,4.498705,18.96947,-11.84733,-11.20611
-8.980651,-1.254562,4.096479,23.60305,9.221375,4.061069
-9.01417,-1.431733,4.292804,24.69466,-8.106871,-13.80153
-9.607931,-0.4740519,4.206613,3.908397,-6.763359,-15.31298
-9.308656,0.08619126,4.510676,24.50382,-15.24428,-6.022901
-8.166622,-0.1987187,4.304775,69.32825,-15.15267,-29.00763
-8.42759,-0.4046201,5.554548,35.06107,15.80916,-21.1145
-8.482656,0.09816227,5.963956,31.39695,-7.396946,-22.68702
-9.334992,0.3280056,6.40449,6.648855,-15.49618,-10.34351
-9.677363,-0.9864111,5.935226,-3.374046,-15.9542,-25.51145
-7.376535,-0.04070143,3.940856,2.656489,33.09924,28.38168
-10.08198,-0.4189853,4.414908,-25.67939,-10.99237,18.39695
-8.643068,0.01197101,4.766856,-10.0,11.45802,11.14504
-8.75799,-0.6823475,5.303157,-33.9313,-9.40458,6.038168
-8.671799,-0.7254431,5.044583,-29.07634,-7.145038,5.961832
-9.172187,-0.6344634,5.547365,-35.94656,14.83969,17.38931
-8.492233,-0.002394202,3.289633,-39.53435,38.10687,32.14504
-10.16578,1.273715,3.241749,-78.40458,-1.847328,46.34351
-8.111555,-0.1843535,4.060566,-23.60305,-0.2442748,-0.3664122
-9.198523,-0.1795651,4.608838,-25.80153,4.832061,14.34351
-8.875306,0.03351882,5.147533,-17.21374,-18.80916,4.08397
-9.018958,0.2705448,5.343858,-11.70992,-35.38931,1.061069
-9.0429,0.1580173,3.948039,-41.03053,28.18321,19.91603
-8.805874,-0.545878,3.473987,-47.73283,-25.85496,27.0
-9.909601,-0.7469909,4.039018,-55.28244,-10.90076,53.0916
-9.239224,-0.4165911,4.881777,-70.73283,-39.76336,41.03817
-8.315063,-0.5602432,4.994305,-83.63359,6.099236,59.48855
-8.631097,0.1412579,4.977545,-101.7328,31.74046,69.58778
-8.939949,0.03830723,4.683059,-89.58015,-31.10687,51.61832
-8.540117,0.272939,4.714183,-54.16794,21.07634,58.1832
-9.742006,0.2681506,4.237737,-56.01527,19.9542,28.77863
-8.872911,-0.05985504,3.991134,-36.0916,11.62595,8.496183
-8.925584,0.1484405,4.218584,-13.68702,3.335878,19.60305
-8.75799,0.3399766,4.19943,3.519084,-1.122137,21.83969
-9.325416,0.5913678,4.486734,5.687023,14.79389,5.709924
-9.009381,0.8834604,4.000711,-4.679389,3.076336,13.64886
-9.28232,0.9361328,4.376601,-11.96947,3.40458,13.03053
-8.087613,1.539472,5.372589,-12.80916,23.12214,23.67175
-9.873688,1.905785,4.46758,-11.82443,-20.23664,32.25954
-9.109938,1.154005,4.302381,-19.06107,-24.31298,21.0916
-8.283937,1.070208,4.807557,-13.82443,29.45038,20.74046
-9.390059,1.63524,4.043807,-12.56489,23.16794,-5.984733
-10.13944,1.912967,3.244143,-20.9771,41.91603,10.29008
-9.200917,1.70946,2.691083,-22.16031,15.38168,12.53435
-9.066842,1.503559,2.200271,3.503817,-2.007634,-6.824428
-9.399636,1.405396,1.711854,7.770992,16.9771,-5.625954
-10.10114,1.577779,1.23062,2.80916,6.091603,0.1374046
-9.603143,1.575385,1.628057,-0.4580153,-5.320611,-7.129771
-9.607931,1.376666,1.616086,1.007634,13.35878,-4.48855
-10.09156,1.436521,1.261744,0.3740458,15.1145,0.5725191
-9.622296,1.249773,0.5099649,-4.007634,26.89313,-8.267176
-10.10353,1.369483,0.1843535,-4.312977,-11.12977,-1.908397
-9.73243,1.024718,0.7062895,-0.3053435,-2.717557,-0.4656488
-9.909601,1.812411,-0.05267244,-13.80153,15.92366,10.76336
-10.51533,1.036689,0.5506664,-3.740458,-0.6717557,-2.48855
-10.02213,0.890643,0.4764462,-6.419847,9.412213,-5.793893
-11.03248,1.489193,-0.1699883,-4.053435,35.10687,27.06107
-10.82419,1.649605,-1.074997,36.22137,-28.79389,-0.2748091
-9.976639,0.9528923,-0.8619126,5.687023,16.38931,-9.763359
-10.27591,0.6991069,-1.204283,21.28244,7.366412,4.549618
-9.900024,1.086968,-0.866701,5.244275,7.412214,-4.496183
-9.878476,0.5315128,-1.103727,-5.580153,-3.923664,-23.32061
-10.0317,0.2633622,-0.8810662,-5.610687,11.36641,-13.84733
-10.14423,-0.05027823,-0.4141969,-19.41985,3.145038,-10.59542
-10.3238,0.1388637,-1.082179,-18.87786,3.427481,-2.740458
-10.12747,0.002394202,-1.21386,-17.37405,5.229008,-9.832061
-10.40999,-0.1149217,-1.067814,-15.70229,9.0,-10.32824
-9.957485,-0.02394202,-1.630451,-11.64886,5.679389,-8.793893
-10.29028,-0.5003881,-1.09415,-1.40458,-10.45038,-7.007634
-10.35013,-0.5075707,-1.300052,-10.55725,1.564886,-10.9313
-10.0772,-0.8595184,-1.482011,-1.648855,2.519084,-4.29771
-10.07001,-1.130063,-1.671153,8.38168,9.839695,-3.068702
-10.00058,-0.7086837,-1.575385,0.9389313,4.221374,-4.40458
-10.12029,-0.902614,-1.898602,7.839694,14.21374,-3.335878
-10.06522,-1.357512,-2.03986,-9.877863,-10.03053,-0.8396947
-10.12747,-0.8714894,-0.9624691,-2.664122,-33.05344,7.938931
-10.2807,-0.4932055,-0.9959879,-0.6335878,-11.51908,2.030534
-10.88165,-1.187524,-0.2801216,4.19084,-18.29771,25.21374
-10.24718,-0.248997,0.06224924,-12.41985,-25.08397,15.35114
-9.818622,0.7374141,0.8882488,18.71756,-46.38931,-1.152672
-9.662998,-0.02394202,1.848324,16.40458,-38.19084,-3.450382
-9.739613,-0.3878607,3.399766,-1.251908,-32.35115,-18.77099
-10.87446,0.1268927,2.487576,10.54962,-67.79389,4.305344
-8.334216,-0.6153098,4.898537,15.91603,-96.38168,-33.40458
-6.737284,-0.3112462,6.086061,13.38168,-48.48855,-3.061069
-6.007052,-0.3160346,7.206547,-0.480916,-73.06107,3.068702
-4.900931,-1.067814,9.555259,-6.458015,-112.229,0.3969466
-2.331953,0.8978256,7.836222,-18.26718,3.549618,0.1145038
-2.904167,-0.7158663,9.394848,-1.038168,-26.79389,-9.755725
-2.595315,-0.4572925,9.696517,12.1145,-43.54962,3.473282
-1.572991,-0.4692635,9.555259,8.145039,-34.67176,-0.9007633
-0.6033388,-0.2418144,9.421184,3.671756,-6.977099,8.862596
-0.1771709,0.5291186,9.062054,13.14504,1.21374,-2.358779
-1.134852,0.06703765,9.337387,16.87023,-2.977099,-10.56489
-0.641646,0.2585738,9.76116,-7.48855,-9.053435,-10.29771
1.534683,0.4644751,8.291121,-3.229008,10.77099,-6.053435
-0.2178724,0.5961562,9.615114,-5.656488,-0.7633588,1.458015
-0.07900865,0.08379706,9.533711,-8.534351,-10.44275,-4.305344
-0.07661445,0.02394202,9.684546,5.152672,9.099236,-2.129771
-0.213084,0.4979939,9.888053,24.35878,2.282443,4.320611
-0.01197101,0.85473,9.715671,4.244275,-0.778626,1.748092
-0.1149217,1.120486,9.55047,10.17557,6.480916,1.038168
-0.237026,1.122881,9.698911,-22.09924,5.267176,4.175572
-0.3303998,0.6392518,9.753978,5.022901,8.167939,1.320611
-0.4836287,0.7398083,9.856929,-4.282443,2.992366,-0.01526718
-0.5626374,0.8595184,9.277532,3.503817,15.23664,6.78626
-1.132457,0.7445967,9.91439,2.839695,12.75572,1.557252
-1.225831,0.878672,9.811439,9.122137,12.9313,1.748092
-1.335965,0.9696517,9.466674,-3.557252,4.725191,-2.954198
-1.419762,0.6991069,9.65821,-1.938931,4.496183,-4.770992
-1.467646,0.8188169,9.883265,14.24428,10.47328,-0.3358779
-2.217031,0.85473,9.526528,-4.954198,7.755725,0.4122138
-1.522712,1.082179,9.289502,37.35878,12.23664,-1.251908
-2.135628,1.426944,9.488221,-9.603053,-0.7251908,-1.007634
-2.221819,1.103727,9.576807,-11.69466,3.068702,1.572519
-2.269703,1.070208,9.629479,-5.763359,4.251908,1.80916
-2.274492,0.9504981,9.543288,-4.801527,-0.06870229,1.091603
-2.420538,0.842759,9.445126,-1.717557,1.854962,-0.351145
-2.513912,0.8044518,9.497798,-0.2824428,3.748092,0.08396947
-2.492364,0.8595184,9.583989,-0.778626,1.396947,0.9007633
-2.523489,0.7637503,9.696517,-3.167939,-2.541985,1.687023
-2.406173,0.6584055,9.457097,-11.92366,-21.45038,2.099237
-1.915361,0.4932055,9.16261,-9.496183,-11.03053,0.09160305
-1.61848,0.617704,9.241618,-1.977099,13.26718,2.70229
-2.480393,0.641646,10.01255,-13.76336,15.07634,25.94657
-2.116474,0.09097966,9.315839,-7.908397,84.9542,11.79389
-4.019865,0.6081272,8.968679,-5.175572,2.694656,7.465649
-3.519476,0.06224924,8.908825,-18.0,-5.992366,2.938931
-4.307169,0.05506664,8.966286,7.78626,92.32825,15.77863
-6.603208,0.07900865,8.054094,-16.58779,42.21374,13.99237
-6.868965,0.02633622,7.759608,-11.9542,14.45038,17.09924
-7.577648,-0.1292869,7.187394,-4.152672,93.26717,24.66412
-8.161834,0.605733,5.157111,0.8778625,62.25191,-8.083969
-9.19134,0.4740519,4.953603,-5.305344,-0.1603053,1.458015
-9.148245,0.2753332,4.81474,6.206107,34.51145,7.625954
-9.272743,0.4381389,3.878607,5.839694,32.68702,-0.5267176
-9.481039,0.6009446,3.351882,1.793893,9.114504,0.2366412
-9.435549,0.6392518,3.22499,5.305344,13.39695,1.343511
-9.631873,0.7302315,3.181894,1.10687,-1.78626,0.4656488
-9.387665,0.7158663,2.971204,3.343511,9.664123,0.5496183
-9.478644,0.6488287,2.908955,-0.09160305,-1.328244,-2.725191
-9.569624,0.6536171,2.703054,0.7175572,20.9542,-4.328244
-9.854534,0.7182605,2.626439,0.6870229,11.64886,-0.8167939
-10.05086,0.7086837,2.090138,3.175573,16.32061,4.923664
-9.78989,0.7924808,1.908179,-4.541985,-3.564885,2.877863
-9.828198,0.6847417,2.047042,4.38168,18.0687,6.755725
-9.983821,1.027112,1.151611,-1.59542,6.992366,-2.458015
-10.06283,0.9193734,1.146823,6.251908,24.05343,8.870229
-10.10832,1.278504,0.07422025,10.53435,80.229,14.0916
-9.742006,1.455675,-1.477222,4.480916,39.70992,5.801527
-9.639056,1.496376,-1.896208,-1.580153,7.709924,-0.5954198
-9.885659,1.443704,-2.161964,5.900764,28.83206,4.557252
-9.617508,1.493982,-2.846706,5.19084,23.59542,-1.70229
-9.615114,1.331176,-3.311181,2.389313,15.1145,-2.473282
-9.337387,1.443704,-3.679888,1.80916,19.0916,2.145038
-9.332599,1.460463,-4.168305,0.8854962,13.33588,2.229008
-8.858546,1.25935,-4.180276,2.221374,15.20611,-8.259542
-9.241618,1.345541,-4.884171,3.022901,57.09924,-1.40458
-8.554482,1.017536,-5.396531,-1.29771,30.98473,-10.41985
-8.444349,0.8714894,-5.846641,3.862595,47.16031,0.02290076
-7.668628,1.055843,-6.627151,16.58015,16.08397,2.923664
-7.57286,0.8954314,-6.890512,-3.435115,-1.091603,-10.14504
-7.419631,0.8259995,-7.038953,5.564886,11.08397,0.04580153
-7.074866,0.7350199,-7.127539,-0.6030535,29.52672,3.198473
-6.744466,0.7876924,-7.596802,-2.343511,19.64886,-0.6259542
-6.258443,0.6464345,-7.917625,6.717557,19.96183,-4.442748
-5.906496,0.6823475,-8.367735,4.229008,27.37405,-1.717557
-5.57849,0.6967127,-8.540117,-0.01526718,9.076336,-0.6183206
-5.334281,0.617704,-8.695741,1.076336,-6.129771,-3.519084
-5.645528,0.3878607,-8.870518,0.7480916,15.8626,-3.221374
-5.303157,0.5267244,-8.750807,-2.458015,4.885496,3.633588
-5.013458,0.4668693,-8.911219,2.465649,24.77863,1.007634
-4.60405,0.6344634,-9.090784,-6.656488,3.870229,2.236641
-4.259285,0.6248866,-9.289502,5.21374,22.54962,2.068702
-4.139575,0.7350199,-9.533711,0.5114504,25.1145,9.068703
-3.976769,0.4764462,-9.955091,8.320611,6.61832,1.381679
-3.440468,0.605733,-9.787497,2.152672,1.847328,4.679389
-3.397372,0.2561796,-9.64145,1.938931,18.25191,3.175573
-2.978387,0.4477157,-9.923966,-3.19084,6.137404,11.10687
-2.760514,0.5770026,-9.792285,0.8015267,19.42748,3.671756
-2.25055,0.617704,-10.00776,3.21374,14.59542,0.3282443
-1.987187,0.5746084,-10.21366,-2.442748,10.36641,-2.709924
-2.020706,0.6200982,-10.18972,1.282443,2.038168,-1.244275
-1.893814,0.4620809,-10.11071,-0.5954198,-0.7480916,-0.9847328
-1.924938,0.4979939,-10.18972,1.503817,-3.450382,-1.610687
-2.051831,0.3639187,-10.0341,3.305344,-11.35878,-1.442748
-2.355895,0.2992752,-10.1179,8.541985,-19.12214,-3.015267
-2.765303,0.1436521,-9.909601,0.6412213,-20.36641,-3.167939
-3.241749,0.06703765,-9.519346,2.961832,-17.35114,-9.427481
-3.622427,-0.03112462,-9.706094,5.473282,-7.152672,-3.29771
-3.646369,0.1939303,-9.878476,14.0458,0.4580153,-0.3587786
-4.548983,0.4213795,-9.41879,-6.335878,-16.08397,-5.099236
-4.161122,-0.09816227,-9.40203,2.312977,-40.31298,16.03053
-4.955997,-0.3232172,-9.006987,-10.58015,5.862596,17.0916
-4.503493,0.02154782,-9.176975,-25.76336,-11.74809,10.26718
-4.5418,0.4094085,-9.536105,8.702291,-3.19084,-2.076336
-4.838682,0.3399766,-9.081207,5.396946,-8.938931,-1.10687
-4.560954,0.4884171,-8.887277,11.38168,14.61069,9.916031
-5.011064,0.1604115,-9.411607,3.748092,5.908397,-0.7633588
-4.577713,0.08858546,-9.215282,-1.167939,-11.73282,-10.67939
-4.927267,-0.02394202,-9.153033,-0.9541985,-2.145038,-3.022901
-5.446809,-0.06464344,-8.980651,6.709924,-2.664122,-9.045801
-4.99191,-0.05985504,-9.181764,-2.076336,-9.183207,-8.282443
-5.544971,0.1316811,-8.626308,-8.419847,-24.92366,-11.74809
-5.228937,-0.03112462,-8.39886,-7.167939,-2.244275,-1.053435
-5.521029,-0.01436521,-8.195353,24.86259,11.98473,6.839694
-5.437232,-0.04309563,-8.674192,0.4885496,2.412214,14.32824
-5.45878,0.09337386,-8.362947,-3.335878,-26.55725,5.206107
-5.48751,0.03112462,-8.789114,-4.61832,26.26718,1.946565
-4.960786,-0.272939,-9.033323,17.54962,15.93893,2.877863
-4.726154,-0.3303998,-9.138668,-3.122137,-7.435114,-11.00763
-5.056554,-0.01197101,-9.603143,-0.7938931,14.27481,-2.007634
-4.754885,-0.5386954,-9.224859,1.534351,-5.290076,-5.824428
-4.745308,-0.2322376,-9.263166,-0.4198473,-7.679389,-8.847328
-5.063736,-0.4213795,-9.23683,-1.793893,-0.5267176,4.29771
-5.001487,-0.4357447,-9.457097,1.877863,3.732824,4.08397
-4.896142,-0.3806781,-9.241618,-5.251908,-9.824428,2.091603
-5.547365,-0.344765,-9.143456,-8.19084,-14.19084,1.610687
-5.461174,-0.296881,-8.777143,-2.496183,-14.9084,-0.02290076
-5.985504,-0.1197101,-9.0429,-6.70229,-21.0,6.534351
-6.16507,0.1268927,-8.633492,-3.068702,-25.92366,0.4580153
-6.574478,0.1963245,-8.157045,-0.8931297,-34.1832,6.496183
-6.636727,0.3399766,-7.177817,-13.09924,-24.74046,-5.29771
-8.171411,0.4285621,-7.254431,-4.328244,-26.01527,8.763359
-8.054094,0.4525041,-6.349423,-1.557252,-40.32824,6.267176
-8.695741,0.3926491,-5.65271,1.183206,-33.40458,-2.290076
-9.160215,0.5386954,-4.841076,-2.755725,-38.45802,-4.465649
-9.610326,0.5051765,-4.096479,0.1145038,-36.0687,2.770992
-9.07163,0.5650316,-3.313575,-4.167939,-32.87023,4.801527
-9.528923,0.5530606,-2.796427,-8.977099,-33.15267,-3.549618
-9.591172,0.617704,-2.133234,-3.076336,-27.99237,2.839695
-9.595961,0.6775591,-1.438915,-4.480916,-25.94657,3.083969
-9.864111,0.7230489,-0.7757214,-5.312977,-26.73282,-4.435114
-10.1586,0.6847417,-0.06703765,3.160305,-30.64886,7.503817
-10.09874,0.7589619,0.3184288,14.33588,-16.32061,9.366412
-9.73243,1.04866,1.165976,10.1374,-26.20611,7.603054
-9.97185,1.347936,1.046266,9.984733,-7.458015,4.755725
-9.923966,1.496376,1.331176,8.419847,-11.44275,4.854962
-9.672575,1.537078,1.383849,5.755725,-0.740458,5.366412
-9.749189,1.673547,1.510741,12.42748,-0.3587786,7.076336
-10.08198,1.90339,1.33357,8.839695,1.916031,6.641222
-9.512163,2.03986,1.240196,7.08397,1.496183,5.717557
-9.500193,1.982399,1.30484,14.58779,-6.557252,1.129771
-10.25915,2.291251,1.745373,9.038168,-2.816794,-0.9389313
-9.569624,2.65517,1.278504,-0.3969466,3.534351,8.251908
-9.646238,2.310405,1.11091,8.511451,-17.03053,-4.320611
-9.713276,2.413355,1.776498,-3.114504,1.015267,-4.755725
-9.636662,2.284068,1.640028,0.3358779,-2.580153,0.870229
-9.569624,2.027889,1.941698,1.465649,-3.938931,-3.900763
-9.55047,2.169147,1.869872,2.48855,2.526718,-1.160305
-9.241618,1.999158,1.848324,9.099236,-3.312977,-1.473282
-9.950302,2.219425,1.726219,1.007634,13.59542,-7.091603
-9.454702,1.96564,1.793257,9.419847,5.61832,-6.954198
-9.703699,1.929727,1.242591,7.229008,19.63359,-0.740458
-10.00058,2.080561,1.247379,7.740458,-0.8167939,-7.503817
-10.01734,1.972822,0.8523358,3.732824,-2.938931,-3.053435
-9.888053,1.850718,1.070208,-0.3053435,-10.09924,-1.854962
-9.967062,1.924938,1.290475,-2.419847,-2.412214,0.1679389
-9.837775,1.850718,1.671153,-5.526718,-5.969466,2.59542
-9.986216,1.790863,1.917756,-8.198473,-22.1145,-6.358778
-9.878476,1.956063,2.111686,-8.450381,1.396947,4.48855
-9.23683,1.740585,2.116474,-12.22137,-11.79389,1.648855
-9.696517,1.505953,3.102885,-4.267176,-9.969465,-1.0
-9.91439,1.479617,2.252944,-0.832061,15.12977,-1.473282
-9.363723,1.297657,2.252944,-3.603053,-12.31298,-6.08397
-9.957485,1.156399,2.47321,14.29008,19.38931,5.862596
-10.1179,1.393425,1.659182,7.938931,7.671756,1.030534
-10.2807,1.158794,2.027889,10.48092,-1.564886,1.259542
-10.51294,1.632845,1.54426,-2.862595,-9.305344,-10.9084
-9.028535,1.608904,1.831564,-4.152672,-14.29771,-3.870229
