ax,ay,az,gx,gy,gz
1.209072,-9.466674,2.229002,-0.09923664,0.02290076,0.2900764
1.228225,-9.349358,2.195483,-0.08396947,-0.01526718,0.5648855
1.237802,-9.435549,2.276886,-0.2442748,0.04580153,0.1832061
1.192312,-9.421184,2.260126,-0.1679389,0.129771,-0.2290076
1.225831,-9.454702,2.32477,-0.6793893,0.0,0.02290076
1.276109,-9.461885,2.267309,-0.4580153,-0.07633588,0.2137404
1.233014,-9.495404,2.207454,-0.3282443,0.2137404,0.2671756
1.23062,-9.497798,2.147599,0.1450382,-0.1526718,0.1755725
1.204283,-9.49301,2.169147,0.2900764,-0.7633588,0.2290076
1.30484,-9.512163,2.15957,-0.5572519,-0.480916,-0.6259542
1.283292,-9.507375,2.027889,-1.549618,0.8015267,-1.374046
1.271321,-9.454702,2.032677,-2.541985,1.480916,-1.671756
1.221043,-9.576807,2.003947,-3.427481,1.694656,-2.389313
1.309628,-9.516952,1.977611,-3.068702,2.343511,-3.19084
1.25935,-9.488221,1.80044,-3.984733,3.374046,-3.725191
1.142034,-9.40203,1.972822,-6.480916,3.549618,-3.89313
1.187524,-9.454702,1.824382,-10.18321,2.755725,-3.870229
1.098939,-9.593566,1.826776,-12.41985,2.045802,-5.137404
1.211466,-9.476251,1.831564,-12.8626,1.290076,-5.015267
1.165976,-9.572019,1.685518,-13.79389,0.6946565,-3.839695
1.355118,-9.548077,1.704672,-11.67939,0.648855,-2.381679
1.283292,-9.526528,1.702277,-11.84733,0.8854962,-1.938931
1.49877,-9.41879,1.534683,-13.38168,1.603053,-2.793893
1.649605,-9.454702,1.35033,-14.59542,2.625954,-3.89313
1.972822,-9.361329,1.01993,-16.86259,7.122138,-3.343511
1.956063,-9.07163,0.7613561,-24.42748,12.85496,-6.717557
2.264915,-9.07163,0.6105214,-29.78626,21.03053,-8.435115
1.889025,-9.476251,0.9121908,-37.54962,26.96947,-8.488549
1.534683,-10.2831,1.06542,-35.55725,28.71756,-11.81679
1.362301,-10.16578,1.132457,-32.82443,23.31298,-10.25191
1.221043,-10.26394,0.7493851,-27.9084,14.54198,-8.396947
1.75495,-9.780313,0.6512229,-20.35114,9.885496,-11.40458
1.984793,-9.452309,0.3423708,-22.74046,8.229008,-11.42748
2.1883,-9.155427,0.6607997,-16.38931,4.343512,-8.114504
2.269703,-9.093178,0.1197101,-20.38168,-2.541985,-5.633588
2.123657,-9.277532,0.3375824,-19.82443,-5.496183,-4.358778
2.671929,-8.379706,0.9552865,-23.28244,-11.76336,2.038168
2.592921,-9.454702,0.0,-32.69466,-11.62595,3.389313
2.413355,-8.90643,0.866701,-24.32061,-6.671756,5.923664
2.219425,-9.828198,0.06464344,-30.72519,-16.87786,4.351145
2.825158,-9.112331,-1.154005,-28.58015,-16.00763,7.259542
3.392584,-8.549694,-0.7254431,-25.40458,-10.77863,15.77863
2.5187,-9.842564,-2.202666,-39.83206,-4.541985,3.648855
2.403779,-9.617508,-2.020706,-31.38168,-5.557252,0.778626
1.616086,-9.306262,-1.922544,-26.57252,-11.80153,5.610687
1.015141,-9.126697,-3.215413,-33.37405,-19.47328,4.38168
1.51553,-9.358934,-2.521094,-29.22901,-13.74809,3.061069
1.343147,-9.701305,-3.141193,-27.44275,-10.12977,6.435114
0.7541735,-10.25437,-2.94008,-21.35878,-11.93893,12.20611
1.21386,-9.279925,-3.701436,-26.64886,-11.66412,14.77863
1.525106,-9.155427,-4.151546,-28.03817,-7.091603,12.64122
0.9864111,-9.066842,-4.29041,-34.45038,-2.496183,9.274809
0.308852,-8.726865,-3.787627,-40.8168,-7.549618,7.946565
0.8571242,-8.779537,-4.24492,-33.0,-7.557252,6.816794
0.7254431,-9.064447,-4.280833,-19.01527,-4.534351,4.48855
0.5841852,-9.200917,-4.809951,-7.70229,-1.351145,3.412214
1.000776,-9.251195,-4.687847,-7.717557,3.160305,1.137405
0.8810662,-9.43076,-4.838682,-3.89313,3.419847,-0.9770992
0.9600749,-9.205706,-4.630386,-2.78626,-0.8167939,4.175572
0.9864111,-9.454702,-4.766856,3.679389,-1.923664,3.709924
0.9169792,-9.100361,-4.680665,5.282443,-1.40458,3.839695
0.8475474,-9.074024,-4.728549,6.984733,-0.5496183,7.221374
0.6105214,-9.196129,-4.647145,10.32061,-3.648855,9.251908
0.7685388,-9.31105,-4.522647,14.34351,-5.29771,9.664123
0.7254431,-9.279925,-4.616021,15.44275,-3.740458,7.412214
0.6679823,-9.500193,-4.271256,20.58015,-1.282443,5.80916
0.4572925,-9.481039,-3.976769,29.34351,0.03053435,6.282443
0.2585738,-9.378088,-3.44765,35.41221,-1.526718,7.312977
0.2059013,-9.560047,-3.363853,44.09924,-1.580153,6.48855
0.3639187,-9.710882,-3.002329,48.80916,-0.389313,2.167939
0.6153098,-9.734824,-2.892196,51.37405,3.946565,-0.9770992
0.332794,-9.722853,-2.365471,51.75573,5.664122,0.2900764
0.01675941,-9.756371,-2.092532,52.0,3.687023,-1.061069
0.3136404,-9.624691,-1.637634,52.26717,3.618321,-2.549618
0.3423708,-9.476251,-1.383849,50.21374,2.732824,-2.175573
0.6272808,-9.962274,-1.055843,49.73283,5.656488,-1.656489
1.039083,-10.07241,-1.161188,54.21374,11.65649,1.290076
0.5913678,-9.454702,-0.4836287,56.77863,13.54962,-2.908397
0.1891419,-9.437943,0.2059013,45.33588,10.35114,-3.870229
0.581791,-9.526528,0.6871359,42.41221,7.877862,-5.114504
0.617704,-9.495404,0.6368576,42.27481,6.015267,-3.687023
0.5602432,-9.425972,0.9720459,32.42748,-0.05343511,-1.916031
0.308852,-9.787497,1.314417,30.13741,-7.51145,1.030534
0.2681506,-9.481039,1.043872,27.0916,-11.00763,2.961832
0.6033388,-9.481039,1.319205,23.54198,-11.22901,0.5038168
0.7805098,-9.504981,1.458069,18.75573,-11.80916,0.6183206
0.914585,-9.504981,1.242591,17.70992,-8.702291,-1.267176
0.7134721,-9.653421,1.434127,17.85496,-7.030534,-1.854962
0.7110779,-9.579201,1.687912,16.0687,-6.236641,-2.152672
0.6344634,-9.52174,1.958457,13.12977,-7.885496,0.05343511
0.6919243,-9.694122,1.503559,12.16794,-8.282443,-1.267176
0.9457096,-9.452309,1.776498,12.42748,-6.21374,-2.587786
0.8379706,-9.514558,1.92015,8.656488,-6.38168,-2.549618
0.794875,-9.629479,1.795651,7.015267,-5.694656,-4.419847
1.098939,-9.629479,1.934515,7.679389,-3.496183,-6.396946
1.074997,-9.497798,2.102109,7.435114,-3.916031,-3.78626
1.18513,-9.555259,2.104503,5.992366,-5.152672,-1.709924
1.218649,-9.464279,2.097321,7.015267,-4.045802,-1.916031
1.204283,-9.385271,2.322376,5.992366,-3.78626,-0.9465649
1.376666,-9.25359,2.568978,5.358778,-4.099236,-1.534351
1.156399,-9.32781,2.602497,3.618321,-5.335878,-3.160305
1.441309,-9.354146,2.667141,3.526718,-7.366412,-4.19084
1.599327,-9.255983,2.458845,4.427481,-7.51145,-5.778626
1.66397,-9.423578,2.870648,6.740458,-6.885496,-3.099237
1.733402,-9.284714,2.918532,5.328244,-7.519084,3.122137
1.776498,-9.205706,2.72939,3.175573,-5.633588,4.312977
1.637634,-9.354146,2.602497,2.618321,-0.1526718,0.7709923
1.604115,-9.255983,2.839523,0.389313,4.030534,-2.328244
1.733402,-9.028535,2.94008,-1.458015,5.312977,-2.259542
1.577779,-9.100361,2.794033,-2.648855,5.21374,-1.206107
1.539472,-9.272743,2.908955,-3.740458,4.366412,-1.916031
1.472434,-9.272743,2.870648,-5.152672,3.625954,-3.328244
1.455675,-9.241618,2.942474,-5.167939,2.778626,-2.244275
1.458069,-9.258378,2.863465,-6.328244,3.038168,-1.89313
1.505953,-9.31105,2.825158,-5.091603,3.717557,-1.236641
1.482011,-9.354146,2.724602,-3.740458,4.007634,-1.389313
1.429338,-9.342175,2.65517,-2.564885,3.480916,-1.183206
1.467646,-9.303867,2.707842,-1.984733,2.946565,-0.06870229
1.388637,-9.306262,2.492364,-1.877863,2.480916,-0.3664122
1.431733,-9.435549,2.657564,-1.030534,2.374046,-0.648855
1.49877,-9.308656,2.650381,-0.648855,2.198473,-1.045802
1.417367,-9.287108,2.652776,-0.5954198,1.580153,-0.259542
1.47004,-9.330204,2.643199,-0.389313,0.7709923,-0.3282443
1.328782,-9.299079,2.595315,-0.778626,0.4274809,-0.07633588
1.39582,-9.291897,2.624045,-1.236641,0.4045802,-0.2748091
1.407791,-9.334992,2.530671,-1.534351,-0.5419847,-0.8931297
1.45328,-9.421184,2.557007,-1.091603,-0.5725191,-0.07633588
1.403002,-9.387665,2.58095,-0.480916,-0.5419847,0.3587786
1.474828,-9.323022,2.576161,-0.9007633,-0.7480916,0.1068702
1.51553,-9.382876,2.454057,-1.10687,-0.648855,-0.648855
1.489193,-9.356541,2.449268,-1.183206,-0.2061069,-0.610687
1.491588,-9.387665,2.461239,-1.282443,0.4351145,-0.129771
1.462857,-9.387665,2.504335,-0.7709923,0.480916,0.03816794
1.285686,-9.346964,2.494758,-0.8396947,0.1374046,-0.4961832
1.383849,-9.344569,2.53546,-0.9160305,0.2137404,-0.5725191
1.443704,-9.397242,2.540248,-0.9465649,0.2824428,-0.389313
1.412579,-9.41879,2.413355,-0.8167939,0.1832061,0.3053435
1.472434,-9.337387,2.3535,-1.312977,0.4656488,-0.1832061
1.47004,-9.390059,2.358289,-0.7328244,0.8015267,-0.9770992
1.436521,-9.3733,2.513912,-0.6030535,0.5954198,-0.6030535
1.441309,-9.366117,2.559402,-0.6335878,0.4198473,-0.6259542
1.458069,-9.344569,2.382231,0.03816794,0.0,-0.2748091
1.477222,-9.294291,2.523489,-0.2366412,0.2061069,-0.4122138
1.460463,-9.332599,2.430115,-0.1908397,-0.259542,-0.4580153
1.431733,-9.323022,2.470816,-0.4503817,-0.4274809,-0.6183206
1.546654,-9.351752,2.418144,-0.129771,-0.4198473,-0.05343511
1.520318,-9.356541,2.48997,-0.3053435,0.03816794,0.3969466
1.467646,-9.3733,2.487576,-0.3664122,-0.1068702,0.3435115
1.49877,-9.363723,2.432509,-0.3206107,-0.2213741,-0.3129771
1.446098,-9.330204,2.477999,-0.3358779,-0.6259542,-0.1221374
1.54426,-9.416395,2.468422,-0.1068702,-0.7633588,0.389313
1.510741,-9.399636,2.360683,0.1908397,-0.7709923,0.5267176
1.491588,-9.390059,2.463634,0.129771,-0.4503817,0.09923664
1.56102,-9.337387,2.470816,0.2900764,-0.007633588,-0.06870229
1.556231,-9.428367,2.437297,0.4198473,-0.1603053,-0.259542
1.556231,-9.351752,2.394202,0.6793893,-0.03053435,0.2290076
1.49877,-9.358934,2.391808,0.5343512,-0.1450382,0.4580153
1.462857,-9.404425,2.430115,0.7633588,-0.1679389,0.0
1.556231,-9.296685,2.41575,0.610687,0.1984733,-0.3358779
1.532289,-9.440337,2.425326,0.7328244,0.4274809,-0.007633588
1.551443,-9.349358,2.384625,0.648855,0.4503817,0.351145
1.493982,-9.351752,2.492364,0.6946565,0.3206107,0.4045802
1.460463,-9.318233,2.521094,0.4427481,0.5419847,-0.1984733
1.422156,-9.44752,2.571373,0.7480916,1.0,-0.3969466
1.489193,-9.318233,2.497152,0.2748091,0.5419847,-0.1068702
1.541866,-9.411607,2.583344,0.389313,0.5725191,0.03816794
1.539472,-9.382876,2.477999,1.022901,0.3206107,-0.6412213
1.493982,-9.323022,2.523489,0.961832,0.3129771,0.2671756
1.441309,-9.291897,2.513912,0.7709923,0.4503817,0.1908397
1.479617,-9.358934,2.513912,0.8931297,0.519084,0.870229
1.465251,-9.337387,2.509123,1.068702,0.04580153,0.8015267
1.51553,-9.356541,2.427721,1.21374,0.05343511,0.4656488
1.450886,-9.299079,2.497152,0.4045802,0.2137404,0.1145038
1.527501,-9.3733,2.525883,1.160305,-0.01526718,0.7557252
1.501164,-9.284714,2.521094,0.9923664,-0.1450382,0.8778625
