ax,ay,az,gx,gy,gz
0.7422025,-9.758766,1.182736,-1.59542,-1.480916,0.0610687
0.6751649,-9.734824,1.142034,-2.335878,-1.10687,-0.7328244
0.7613561,-9.792285,1.206678,-1.755725,-0.519084,-1.0
0.770933,-9.706094,1.321599,-0.9236641,0.03053435,-0.2824428
0.8188169,-9.739613,1.30484,-0.01526718,-1.122137,0.6641222
0.7278373,-9.725247,1.266533,0.8931297,-2.748092,0.9541985
0.6895301,-9.679757,1.225831,0.648855,-4.335878,1.0
0.629675,-9.684546,1.211466,-0.7557252,-4.923664,1.664122
0.7134721,-9.689334,1.077391,-1.290076,-5.954198,1.541985
0.7015011,-9.749189,1.077391,-1.519084,-5.78626,1.229008
0.7158663,-9.763555,1.022324,-2.389313,-5.137404,0.2748091
0.7445967,-9.770737,0.9672575,-1.534351,-3.473282,0.2748091
0.7469909,-9.739613,1.005565,-0.8549618,-2.885496,0.8015267
0.7350199,-9.78989,1.051055,0.03053435,-2.725191,1.557252
0.6153098,-9.787497,1.079785,0.6717557,-3.435115,2.045802
0.6631939,-9.873688,0.9792285,2.328244,-3.694656,2.221374
0.533907,-9.739613,1.16837,2.633588,-4.450382,2.687023
0.5530606,-9.816227,1.060631,2.633588,-5.603054,3.625954
0.5171475,-9.828198,1.063026,3.755725,-6.465649,3.48855
0.5386954,-9.734824,1.125275,2.977099,-7.061069,3.259542
0.4285621,-9.742006,1.194707,1.053435,-7.91603,2.755725
0.4118027,-9.847352,0.9935937,0.3282443,-7.671756,3.969466
0.3399766,-9.662998,0.9481038,-1.160305,-8.022901,4.717557
0.3136404,-9.794679,0.926556,-1.557252,-9.702291,5.312977
0.2777274,-9.947908,0.8355764,-1.465649,-9.030535,4.015267
0.2178724,-9.907207,0.7900866,-0.2213741,-6.709924,3.519084
0.1268927,-10.00297,0.7422025,2.824427,-7.122138,5.236641
-0.01436521,-10.01495,0.4596867,6.435114,-8.335877,3.969466
0.3184288,-9.931149,0.2466028,9.152672,-6.603054,0.6259542
0.4285621,-9.452309,0.9816227,4.70229,-1.412214,-5.435114
0.8236053,-9.490616,0.9552865,-2.465649,3.282443,-5.931298
1.364695,-9.739613,0.7015011,0.648855,8.580153,1.274809
0.4620809,-8.947132,0.8978256,-8.549619,12.53435,-0.4351145
0.8092402,-9.483433,0.3423708,-19.35878,18.79389,-11.0229
2.193089,-9.73243,0.6536171,-23.0,30.62595,-15.65649
1.419762,-10.96066,0.05027823,-28.74809,42.66412,-24.30534
1.407791,-10.22324,1.010353,-17.22137,46.64885,-30.98473
1.027112,-9.279925,2.947262,-20.29771,29.08397,-25.37405
0.2154782,-9.892841,1.836353,-37.32824,16.19084,-37.14504
1.774103,-9.210494,1.307234,-26.80153,17.60305,-42.24427
2.200271,-8.429984,1.996764,-26.96947,15.28244,-22.9542
1.482011,-8.844181,1.142034,-29.9313,8.175572,-17.89313
2.461239,-8.073248,1.628057,-25.76336,-0.07633588,-5.801527
0.9624691,-9.016563,1.103727,-46.45038,-12.51908,-2.572519
2.691083,-11.85848,-1.608904,-41.32061,-2.992366,-35.83206
4.783615,-8.178593,-0.03830723,-23.34351,9.244275,-39.67939
2.042254,-8.099585,-1.795651,-34.43512,40.41221,-45.0
2.288857,-10.91038,-1.479617,-23.41985,18.22901,-37.91603
1.570596,-9.495404,-1.079785,-27.36641,-6.320611,-3.496183
2.147599,-9.756371,-2.202666,-40.38931,16.99237,-14.87023
3.095703,-9.334992,-1.833959,-26.35114,19.0916,-22.27481
2.463634,-8.604761,-2.39899,-16.66412,21.32061,-24.77863
2.367866,-8.664616,-1.912967,-33.86259,27.14504,-16.99237
2.377442,-8.444349,-2.025495,-35.16031,32.16031,-6.755725
2.401384,-8.710106,-1.446098,-29.74809,35.48092,-5.519084
3.220201,-10.44351,-1.831564,-25.74046,34.10687,-23.72519
3.203442,-9.768343,-2.001553,-41.99237,22.09924,-15.96947
2.719813,-8.635885,-1.683124,-73.66412,24.44275,-16.79389
3.82354,-9.713276,-4.76925,-102.5191,38.00763,-36.17557
5.288792,-7.951144,-1.719037,-104.3588,-9.80916,-17.0229
4.776433,-7.788338,-5.147533,-130.3435,8.862596,-20.75573
5.262455,-7.015011,-4.594473,-117.1145,24.0,-22.66412
5.422867,-7.110779,-4.381389,-85.76336,8.21374,-16.0229
5.312734,-5.681441,-4.259285,-83.00764,-0.8091603,-6.320611
4.841076,-5.360618,-5.300763,-88.74809,-3.816794,-11.63359
6.366182,-5.226542,-6.454768,-81.34351,-0.5801527,-9.557252
6.272809,-4.920084,-7.797915,-63.78626,6.335878,-7.29771
5.662287,-4.472369,-7.096414,-62.80916,-2.076336,-3.748092
6.521805,-4.594473,-7.94875,-47.22901,13.80916,-12.16794
6.0286,-4.419696,-7.546524,-28.38168,18.0229,-10.65649
5.535394,-4.271256,-6.880936,-27.25954,12.21374,-8.641221
5.755661,-3.94325,-7.029376,-19.24427,14.41221,-9.244275
5.832275,-3.696647,-7.194576,-18.47328,14.25954,-9.885496
5.872977,-3.409343,-6.943185,-20.59542,10.9542,-9.458015
6.234501,-3.462016,-7.515399,-16.29008,13.53435,-8.129771
6.162675,-3.46441,-7.395689,-9.610687,17.78626,-7.389313
6.26802,-3.689465,-7.548918,0.9465649,19.58779,-4.938931
6.497863,-3.371036,-7.199365,2.885496,16.22137,-0.2137404
6.241684,-3.184288,-7.216124,8.076336,15.16031,6.335878
6.497863,-3.045424,-6.83784,7.40458,18.84733,10.61832
6.584054,-3.392584,-6.629545,10.53435,25.74809,11.37405
6.265626,-3.737349,-6.476315,19.25191,24.34351,13.58015
6.26802,-3.677494,-6.086061,23.19847,18.9084,21.26718
6.457162,-3.679888,-5.884948,19.9084,18.33588,25.51908
6.603208,-4.007894,-5.446809,17.65649,11.96183,30.61832
6.318298,-5.042189,-5.851429,15.84733,10.89313,28.16794
6.500257,-5.066131,-6.200983,27.69466,15.12977,28.22901
6.67264,-5.046977,-5.758055,26.63359,23.83206,33.38168
6.203377,-5.250484,-5.437232,37.70229,27.15267,35.36641
6.440403,-5.614403,-5.149928,41.85496,26.19084,42.9542
6.449979,-6.227319,-4.821922,44.24427,26.70229,42.74046
5.932832,-6.512228,-4.132392,45.74046,23.39695,39.01527
5.521029,-6.663064,-3.957615,45.66412,18.61832,38.51145
5.841852,-7.053318,-3.701436,54.07634,17.41221,44.21374
5.805939,-7.565677,-3.050213,54.67939,11.69466,46.85496
5.236119,-7.582437,-2.987964,53.74809,6.496183,45.29771
4.972757,-7.881712,-2.693477,51.91603,-0.6183206,42.85496
4.666299,-7.718906,-2.011129,47.54198,-8.427481,43.13741
4.395754,-8.252813,-1.80044,50.32061,-12.16031,42.64122
4.036624,-8.511387,-1.826776,52.03817,-13.80916,38.09924
3.770868,-8.664616,-1.47004,49.8168,-23.52672,32.72519
3.754108,-9.14585,-1.695095,49.65649,-28.03053,20.50382
3.895366,-8.542512,-1.505953,43.93893,-30.03817,15.19847
3.8403,-8.525752,-0.9840169,42.74809,-27.79389,18.60305
3.65834,-8.623915,-0.237026,44.8855,-36.01527,27.1145
2.667141,-8.544906,-0.3280056,42.35115,-47.87786,37.15267
2.801216,-9.198523,-0.1532289,43.21374,-56.77099,34.45038
2.796427,-9.366117,-0.6129156,43.51145,-65.16031,32.75573
2.449268,-8.693346,-0.7685388,43.50382,-78.229,37.77099
2.999935,-8.777143,-1.347936,40.83206,-80.12977,42.12214
2.149993,-9.404425,-0.6440403,42.0458,-89.96947,52.9084
1.070208,-10.62547,-1.972822,35.77863,-94.9313,45.67939
2.284068,-10.60871,-1.158794,37.71756,-86.1145,25.36641
1.170765,-9.665392,-0.2202666,44.55725,-82.90839,24.29008
-0.7350199,-8.896853,0.8379706,29.74046,-95.35878,39.41985
0.4189853,-10.55364,0.2011129,32.00763,-82.64886,32.45038
1.120486,-9.935937,0.213084,29.61069,-58.24427,26.35878
0.6871359,-9.768343,0.7852982,27.83206,-41.73283,26.24427
-0.04548983,-8.839393,0.5746084,13.29008,-40.66412,27.9084
-0.3064578,-10.66377,0.7900866,13.14504,-40.29771,16.81679
0.1221043,-10.80264,0.6129156,16.28244,-34.41985,13.46565
0.7733272,-9.691729,0.866701,14.56489,-25.0,13.45038
0.1244985,-9.514558,1.434127,9.954199,-17.67939,13.07634
-0.2537854,-9.801862,1.45328,6.091603,-10.64886,7.961832
-0.4836287,-9.610326,1.68073,5.946565,-6.839694,2.526718
-0.6368576,-9.497798,1.788469,1.717557,-7.732824,-0.4732824
0.0,-9.919178,1.335965,0.7862596,-1.480916,-2.40458
-0.002394202,-9.708488,1.505953,3.70229,1.51145,-2.496183
-0.1843535,-9.655815,1.302446,3.564885,1.40458,-5.748092
-0.07900865,-9.701305,1.474828,5.465649,2.572519,-8.473283
-0.1699883,-9.646238,1.410185,6.709924,2.977099,-10.41221
0.1436521,-10.19451,1.70946,8.229008,2.061069,-9.977099
0.06943185,-9.849746,1.692701,7.969466,-3.793893,-6.992366
0.5099649,-9.224859,1.632845,5.122138,-1.282443,-10.29008
1.431733,-9.756371,1.960851,4.312977,6.839694,-7.175572
0.3591303,-9.397242,2.111686,2.618321,1.580153,-0.9007633
0.1460463,-11.04685,2.420538,-0.3358779,-6.206107,-1.847328
0.4692635,-9.792285,1.999158,2.694656,-8.664123,-2.122137
0.8451532,-9.569624,1.924938,2.984733,-5.480916,-1.328244
0.6871359,-9.5385,1.908179,3.312977,-2.80916,-0.8625955
0.6488287,-9.555259,2.049437,2.969466,-2.580153,-0.2748091
0.7062895,-9.500193,2.015918,2.832061,-2.221374,-0.7022901
0.6919243,-9.758766,2.051831,2.572519,-3.305344,0.3206107
0.521936,-9.706094,2.097321,2.068702,-5.480916,0.01526718
0.6967127,-9.514558,2.097321,1.022901,-5.068702,-0.2977099
0.7134721,-9.433155,1.778892,-0.4961832,-3.618321,-1.671756
0.5650316,-9.61272,1.912967,-1.633588,-3.587786,-2.274809
0.6033388,-9.61272,1.96564,-2.236641,-3.419847,-2.007634
0.6248866,-9.627085,2.0231,-1.885496,-3.877863,-0.9770992
0.6392518,-9.622296,2.006341,-2.175573,-3.435115,0.0610687
0.6655881,-9.603143,1.953669,-2.099237,-4.259542,-0.6870229
0.6967127,-9.648633,2.0231,-2.0,-4.328244,-0.4427481
0.6895301,-9.607931,2.0231,-2.167939,-3.778626,-0.2442748
0.7757214,-9.610326,1.944092,-1.183206,-3.885496,0.3969466
0.7110779,-9.591172,1.984793,-1.152672,-3.625954,0.3206107
0.7326257,-9.68694,1.944092,-1.458015,-3.320611,0.2290076
0.8188169,-9.65821,1.821988,-2.732824,-2.580153,-0.6412213
0.8355764,-9.660604,1.668759,-2.450382,-0.7557252,-1.519084
0.7398083,-9.55047,1.838747,-2.21374,-0.08396947,-0.5114504
0.7230489,-9.68694,1.886631,-3.48855,-0.8015267,0.1145038
0.794875,-9.631873,1.68073,-3.580153,0.4351145,-0.5954198
0.7924808,-9.622296,1.80044,-2.923664,1.312977,-0.9007633
0.6847417,-9.715671,1.687912,-2.877863,1.839695,-1.435114
0.7015011,-9.636662,1.781286,-3.641221,2.656489,-1.328244
0.7565677,-9.552865,1.594538,-4.946565,2.541985,-1.824428
0.8212111,-9.689334,1.503559,-4.396946,4.137404,-2.435115
0.8212111,-9.68694,1.656788,-3.908397,5.709924,-2.259542
0.7422025,-9.634268,1.63524,-3.648855,5.427481,-1.938931
0.7326257,-9.725247,1.625663,-3.312977,4.061069,-1.465649
0.770933,-9.746795,1.632845,-2.259542,2.465649,-1.022901
0.782904,-9.684546,1.628057,-1.748092,1.022901,-0.9694656
0.8762778,-9.691729,1.592144,-0.8473283,1.022901,-1.183206
0.878672,-9.713276,1.47004,-1.10687,1.534351,-0.9007633
0.8212111,-9.648633,1.510741,-0.4274809,1.328244,-0.1832061
0.7637503,-9.68694,1.527501,-0.03816794,0.6641222,0.3129771
