ax,ay,az,gx,gy,gz
1.034295,-7.994239,-5.240908,-4.335878,-16.19847,-14.05344
1.580173,-8.109161,-5.193024,-4.969466,-22.38168,-7.29771
1.584962,-8.379706,-4.548983,4.954198,-24.59542,-6.366412
2.679112,-8.695741,-5.995081,32.35878,22.26718,0.8091603
0.6224924,-9.76116,-7.750031,8.557252,-3.89313,-7.450382
0.8595184,-7.058106,-6.636727,-10.07634,-36.39695,-13.81679
1.070208,-6.782773,-6.80911,6.167939,-25.46565,-10.29008
1.771709,-7.52737,-6.713342,2.083969,-13.61069,-1.282443
-0.5123591,-7.247249,-5.635951,-0.3282443,-26.20611,-10.81679
1.714248,-7.649475,-6.16507,9.648855,-9.053435,-4.984733
0.9504981,-8.149862,-5.896919,-2.984733,5.877862,-5.572519
1.467646,-8.702923,-5.583278,18.81679,8.870229,4.206107
0.1819593,-8.070854,-4.563348,4.885496,-3.671756,-8.793893
0.914585,-8.200141,-4.48434,7.954198,-6.78626,-12.0458
1.455675,-8.461109,-4.570531,-8.458015,-14.10687,-19.45802
0.03112462,-12.05241,-7.24246,2.183206,-83.33588,-0.3816794
1.572991,-3.308787,-5.928043,-21.22901,-0.3664122,-16.03817
1.39582,-9.490616,-8.669404,20.17557,-11.91603,-49.91603
2.03986,-6.538565,-4.944026,7.160306,11.67176,-4.610687
1.489193,-8.00621,-5.415684,6.198473,12.08397,-17.99237
1.42455,-8.078036,-5.027823,-6.656488,-0.8396947,-12.12214
1.80044,-8.259995,-4.29041,-0.4045802,-17.71756,-21.93893
1.584962,-8.075643,-4.046201,0.3282443,-23.9771,-7.519084
3.165135,-8.008605,-5.011064,-4.465649,-22.0916,-0.9541985
1.66397,-7.991845,-4.683059,-2.435115,-36.66412,-9.450381
2.841918,-9.296685,-5.08289,3.946565,-46.76336,-9.312977
5.058948,-7.76679,-15.96214,-25.43511,40.80153,-22.19847
-1.826776,-5.336676,-4.362236,-37.86259,-69.38931,-54.74046
1.529895,-7.292738,-8.429984,56.83206,-25.58015,6.572519
0.03351882,-7.10599,-6.325481,7.091603,-31.41985,-6.61832
1.058237,-6.991069,-6.138733,11.17557,-32.35115,-17.59542
1.175553,-6.955156,-6.002264,5.541985,-32.57252,-23.35114
-3.236961,-5.45878,-4.60405,-31.76336,-90.51145,-26.99237
6.497863,-5.434838,-6.543353,14.14504,0.259542,35.93893
1.989582,-7.639898,-4.592079,-13.57252,26.05343,-18.93893
-1.525106,-7.910442,-7.151481,8.412213,4.389313,15.94656
2.195483,-8.025364,-9.112331,27.54962,-24.22137,-15.52672
0.2561796,-5.214571,-6.019023,10.8855,-17.25191,-36.03817
2.911349,-8.528147,-7.93199,26.60305,6.343512,-2.992366
0.6464345,-7.491457,-5.679047,10.0,-18.28244,-29.00763
2.837129,-7.086837,-5.233725,7.335878,8.099236,-5.366412
1.601721,-7.680599,-4.972757,-19.48092,-7.633588,-8.572519
2.049437,-8.552089,-5.159505,-3.351145,-2.549618,0.9465649
1.199495,-8.724471,-4.367024,1.0,-12.93893,-0.832061
2.425326,-8.568848,-4.690241,-8.152672,-8.221375,-0.259542
2.06859,-8.372523,-5.779603,28.9542,15.56489,2.259542
0.7805098,-9.485827,-8.180987,44.9313,-0.07633588,0.03053435
0.926556,-6.251261,-5.805939,-3.656489,-22.54962,-8.358779
1.766921,-8.02297,-5.947197,3.725191,-19.0229,-12.06107
0.9911995,-8.14268,-5.724536,20.87786,-14.27481,18.12977
0.9074024,-7.769185,-4.778827,6.015267,-13.44275,-0.3282443
1.565808,-8.192958,-4.941632,0.7633588,4.900764,-0.2061069
0.7278373,-9.76116,-4.812346,9.106871,2.748092,-3.732824
2.284068,-8.020576,-3.181894,-2.122137,18.93893,9.450381
0.5841852,-8.920795,-3.670311,-12.84733,25.58779,17.9084
0.7134721,-9.923966,-6.758832,-28.31298,-19.08397,11.48092
3.160346,-6.833052,-6.955156,5.160306,22.68702,3.29771
-0.1532289,-7.66384,-6.004658,-25.67175,-18.99237,-13.68702
2.061408,-8.12592,-6.524199,20.24427,8.954199,-12.47328
1.113304,-7.742848,-4.671088,-23.44275,-1.0,-12.39695
0.7350199,-8.714894,-5.176264,3.175573,-5.656488,-6.114504
1.211466,-8.556877,-4.417302,2.564885,-29.64886,-16.19847
2.537854,-8.401254,-4.72376,2.282443,-13.60305,-1.832061
2.583344,-7.994239,-7.52737,2.541985,-3.10687,-27.9771
1.122881,-10.00537,-6.442797,15.45038,6.526718,12.53435
0.2035071,-5.916072,-5.93762,-14.63359,-19.10687,-8.366412
2.011129,-8.477868,-7.00304,-0.007633588,-4.877862,19.86259
0.06703765,-6.351817,-4.453215,-11.59542,-8.549619,5.068702
1.946486,-8.506598,-5.930438,1.938931,6.374046,-1.167939
0.8259995,-8.248025,-4.984728,12.1374,3.229008,-5.137404
1.73819,-8.228871,-3.727772,-2.312977,1.519084,-8.091603
2.267309,-8.497022,-4.106056,-19.48855,16.66412,13.75572
-0.6727707,-11.71722,-8.738836,71.39695,-34.47328,-16.78626
0.5195417,-5.928043,-6.14831,-21.13741,4.59542,-6.496183
1.314417,-8.805874,-6.888118,16.61832,3.091603,-12.54198
1.501164,-6.789956,-5.360618,-3.824427,-2.015267,-19.42748
2.224213,-7.620744,-5.688623,-6.587786,-6.748092,-0.3358779
1.623269,-8.192958,-5.063736,-5.343512,-5.656488,-6.221374
2.080561,-7.975086,-5.049371,-6.519084,-9.824428,-1.900763
2.082955,-9.176975,-5.643134,11.80916,-13.48855,5.961832
2.628834,-8.192958,-6.519411,-3.419847,-1.793893,-19.46565
0.1915361,-8.183381,-6.078878,29.22901,-36.12977,-7.755725
1.218649,-7.984663,-6.962338,9.053435,-3.038168,-6.656488
0.7206547,-8.042124,-6.490681,11.87786,-9.290076,-5.465649
0.2466028,-7.48188,-5.415684,8.007633,-10.74809,9.259542
0.6943185,-8.401254,-5.334281,-1.992366,-2.366412,-7.160306
1.912967,-8.365341,-4.735731,-2.847328,19.68702,6.29771
0.3160346,-8.767567,-4.189853,1.854962,12.09924,-3.847328
1.405396,-8.975863,-4.520253,1.198473,20.14504,12.71756
0.7110779,-10.84095,-8.192958,40.49618,-5.480916,0.4503817
0.8403648,-5.870583,-5.717354,-16.78626,36.34351,-14.16031
1.82917,-9.557653,-7.544129,16.85496,33.35115,13.83206
0.7230489,-7.161057,-4.709395,-12.58779,9.587787,-16.35878
3.129222,-7.934384,-5.609614,-0.4427481,22.45038,6.610687
1.611298,-7.915231,-5.133168,-12.96183,6.541985,-3.305344
2.06859,-8.24563,-4.76925,-2.114504,-1.374046,-1.709924
1.944092,-8.623915,-4.429273,-5.366412,-4.496183,0.5725191
2.042254,-8.157045,-4.019865,-13.63359,-10.45038,2.587786
2.396596,-9.763555,-5.05416,-21.69466,-3.473282,-12.45802
1.716643,-8.2169,-4.728549,-10.12977,10.94656,0.6946565
2.202666,-6.344635,-4.666299,7.793893,-17.41221,13.96947
2.15957,-6.691794,-6.133945,-11.79389,5.603054,-0.1679389
1.637634,-8.772355,-6.952762,12.33588,-11.1374,2.389313
0.2274492,-7.335834,-5.377377,2.145038,-21.87786,1.664122
1.620875,-8.449138,-5.906496,-0.4961832,-13.9084,-5.740458
1.233014,-8.094796,-4.472369,-3.671756,-3.908397,-3.183206
1.393425,-8.626308,-4.72376,-11.78626,4.374046,-10.64886
1.683124,-9.018958,-4.714183,6.290076,3.519084,-0.8625955
0.6775591,-8.516175,-4.235343,-31.07634,21.1145,13.55725
1.414973,-10.17536,-7.580042,28.27481,-19.60305,-3.618321
0.8858546,-6.34224,-6.071695,4.030534,9.320611,-16.15267
2.123657,-7.496245,-6.071695,-7.282443,11.9313,5.129771
1.340753,-8.078036,-5.935226,20.50382,6.862596,-18.94657
2.75812,-7.089231,-4.489128,-18.24427,19.0916,-0.5267176
1.898602,-8.298303,-4.809951,-7.78626,6.160306,6.007634
1.616086,-8.930372,-4.525041,1.625954,-6.80916,1.633588
1.848324,-8.90643,-3.940856,0.1526718,-1.007634,9.519084
2.193089,-9.80665,-5.746084,21.56489,-2.816794,-12.12977
1.678335,-11.2312,-7.321469,27.24427,28.73282,14.51908
1.805228,-6.526594,-5.932832,-15.35114,-4.687023,-4.076336
0.842759,-7.90326,-5.868188,-3.770992,-12.71756,-10.87786
1.335965,-7.941567,-5.470751,17.60305,-18.87023,23.62595
0.4812346,-7.76679,-4.553771,-16.85496,-15.51145,-6.625954
1.982399,-8.916007,-4.642357,9.564885,4.114504,1.832061
0.5363012,-8.580819,-3.622427,0.4122138,4.931298,-4.541985
1.728614,-9.344569,-5.104438,5.877862,6.847328,-2.870229
0.3543419,-10.77151,-6.892907,-18.35878,-8.992367,30.0229
0.629675,-5.846641,-4.43885,2.015267,14.76336,-3.236641
2.245761,-6.969521,-6.174646,-15.12214,-0.4503817,9.61832
1.73819,-8.305486,-6.177041,12.46565,11.09924,-19.06107
2.336741,-7.25922,-4.764462,-9.480916,13.8626,-5.259542
1.474828,-8.492233,-5.121197,-8.977099,7.549618,2.78626
1.338359,-8.406042,-4.213795,-5.145038,-3.633588,2.694656
1.92015,-9.054871,-4.55856,9.557252,-0.6946565,10.71756
1.611298,-8.50181,-3.361459,3.740458,-8.206107,-4.335878
4.220978,-8.973468,-8.429984,-11.66412,16.45802,-16.83969
0.6655881,-6.086061,-3.265691,12.9542,-16.39695,17.01527
0.3399766,-7.8865,-6.514623,-3.206107,-21.19084,-4.251908
2.600103,-7.678205,-5.312734,-1.351145,-1.725191,19.8855
0.5506664,-7.884106,-4.580108,3.541985,-7.923664,12.76336
0.5602432,-8.51857,-4.84347,-7.114504,-6.748092,-8.221375
1.345541,-8.616732,-4.486734,-0.4503817,9.564885,2.633588
0.5865794,-9.454702,-4.527435,-3.656489,5.717557,-10.0687
1.465251,-8.683769,-3.847482,1.091603,16.26718,2.839695
0.2202666,-10.31422,-5.896919,-42.65649,-6.534351,-1.572519
0.05746084,-7.841011,-5.559336,25.65649,-6.419847,-11.03817
2.573767,-5.793968,-6.227319,-22.16794,-0.0610687,3.51145
0.4429273,-9.667787,-7.184999,25.30534,9.59542,-26.54198
1.953669,-6.914454,-5.209783,-15.98473,-6.885496,-20.61069
1.659182,-8.386889,-5.231331,2.931298,-1.236641,-2.099237
1.532289,-8.152257,-4.592079,-1.80916,-11.48855,-4.931298
1.953669,-8.585608,-5.123591,4.152672,-4.343512,3.625954
1.393425,-8.271967,-3.89776,-1.015267,-10.85496,1.824428
2.703054,-9.337387,-6.631939,-43.0458,-2.312977,-19.45802
-0.4046201,-9.466674,-4.338294,36.96183,-13.47328,10.92366
1.881843,-5.940014,-6.651093,-32.45038,-19.56489,-25.98473
3.122039,-7.817069,-6.691794,9.648855,-6.587786,16.57252
-0.3519476,-7.687782,-5.181053,0.2671756,-15.63359,11.0458
1.113304,-8.171411,-5.691018,-3.465649,-13.59542,-3.633588
0.8858546,-8.197746,-4.716578,-3.244275,-2.183206,-2.51145
0.8619126,-9.114726,-4.618415,10.33588,3.946565,-10.21374
1.326388,-8.453926,-3.981557,-6.160306,11.35878,-6.816794
0.9792285,-10.48421,-7.888895,-14.41985,-4.320611,12.94656
0.5051765,-8.001422,-5.477933,18.41985,-9.526717,-13.06107
1.731008,-5.592855,-6.366182,-7.122138,2.396947,-1.610687
0.4908113,-10.19691,-6.924031,22.47328,-0.3053435,-18.78626
1.841141,-6.749255,-4.520253,-0.1450382,-3.671756,-16.16031
2.319981,-8.252813,-5.145139,-7.08397,2.389313,-6.099236
0.8379706,-8.24563,-3.708618,-7.778626,-9.045801,-7.839694
2.624045,-8.848969,-4.922479,5.992366,-14.72519,-0.5725191
1.786075,-8.219295,-4.48434,-21.40458,-8.702291,-15.12977
-0.1173159,-8.408437,-5.267244,17.58015,-28.61832,21.0916
1.742979,-6.852205,-5.631162,-10.87023,-30.0458,-16.84733
0.2442086,-8.003817,-6.804321,10.66412,-32.29771,-14.0
1.11091,-8.003817,-6.052542,0.8778625,-24.27481,1.748092
-0.08140286,-7.680599,-5.444415,0.09923664,-34.46565,-8.908397
0.9768343,-8.042124,-6.038177,-4.709924,-21.56489,-8.259542
0.9528923,-8.508993,-5.204995,0.6335878,-6.740458,2.480916
0.4788404,-7.991845,-4.563348,-9.083969,4.022901,-6.694656
0.8858546,-9.476251,-4.74052,18.22137,8.045801,-7.091603
-0.3663129,-9.615114,-6.277597,-8.61832,-22.32825,11.58015
0.2657564,-8.078036,-5.963956,7.015267,6.08397,-11.41985
1.489193,-6.296751,-6.715736,-6.21374,5.328244,-7.267176
0.4094085,-8.908825,-6.617573,-1.022901,5.374046,-8.633588
2.257732,-7.462727,-5.621585,5.320611,2.442748,-19.39695
1.929727,-7.141904,-4.972757,-24.87023,16.12214,-1.740458
0.8619126,-8.647857,-5.353435,-6.343512,-5.145038,-2.366412
2.042254,-7.943961,-4.932055,-12.92366,-8.206107,2.687023
1.611298,-9.050082,-5.200206,3.290076,-3.687023,6.374046
2.710236,-8.35337,-6.981492,-12.87023,6.78626,-21.48092
1.426944,-8.851364,-7.043741,9.320611,16.48092,-6.21374
1.740585,-7.426814,-6.517017,-1.068702,-7.282443,4.305344
0.6368576,-7.371747,-6.701371,10.07634,-11.42748,4.076336
1.898602,-7.546524,-6.34224,-0.4274809,-3.984733,2.587786
0.7637503,-7.319075,-5.619191,8.900764,-4.854962,18.00763
0.6823475,-7.773973,-5.717354,-0.06870229,-10.55725,0.4732824
1.412579,-8.082825,-4.922479,6.458015,7.541985,7.015267
0.9361328,-8.453926,-4.627992,-1.549618,4.732824,-9.274809
1.345541,-8.872911,-4.283227,20.52672,-6.78626,-9.969465
1.951274,-8.24563,-3.325546,5.740458,-6.664122,2.748092
0.7182605,-9.988609,-10.57998,80.80153,-43.87023,0.7099237
-0.3160346,-5.779603,-5.810728,-22.15267,-23.79389,-17.59542
3.55539,-9.212888,-7.726089,13.65649,-4.572519,-45.54198
1.398214,-7.074866,-4.805163,0.3129771,25.77099,-9.61832
2.782062,-7.852982,-5.056554,-8.358779,30.00763,-2.282443
1.477222,-8.595184,-4.395754,-7.312977,27.83969,10.63359
1.16837,-8.200141,-3.885789,-20.61832,10.83206,15.81679
1.728614,-8.860941,-4.817134,-1.870229,-3.603053,18.68702
1.869872,-8.200141,-4.757279,-20.37405,-2.633588,-1.022901
2.025495,-9.358934,-3.8403,-38.01527,-12.10687,-8.473283
2.406173,-8.633492,-7.225701,-19.9313,1.740458,45.41221
-0.6344634,-3.610456,-4.88896,-28.9542,-14.52672,-8.503817
1.704672,-7.52737,-7.625533,37.71756,-14.93893,5.755725
-1.00317,-8.259995,-6.335058,15.1374,-17.09924,-6.290076
0.260968,-7.570466,-5.619191,13.15267,-11.99237,-2.427481
-0.03112462,-8.188169,-5.62398,5.259542,-8.748092,-14.0
-0.260968,-8.367735,-4.086902,16.56489,-15.63359,-20.66412
1.149217,-7.965509,-5.207389,-32.21374,-20.51145,-30.69466
1.980005,-8.880095,-3.86903,13.49618,-1.274809,-1.0
-1.642422,-10.26873,-7.666234,14.01527,-40.30534,-2.366412
0.4908113,-7.582437,-5.659893,11.41221,-13.28244,-23.68702
1.80044,-6.363788,-6.418855,-0.4351145,3.396947,5.984733
1.458069,-8.942344,-7.072472,22.75573,-1.083969,-27.45802
1.728614,-6.921637,-4.683059,-0.5343512,-0.3740458,-16.74046
2.0231,-7.982268,-4.881777,-10.03817,-4.564886,-1.641221
1.644816,-8.470686,-4.79798,-8.305344,-14.42748,-8.427481
1.690306,-8.779537,-4.826711,3.198473,7.030534,11.91603
1.163582,-9.205706,-3.873818,2.374046,-23.42748,-10.41221
3.485958,-9.749189,-6.737284,-6.480916,27.41221,-9.427481
-0.3423708,-7.079654,-6.105214,35.0916,-38.38931,-6.366412
1.472434,-8.037335,-7.000646,-33.98473,-20.9542,-24.37405
1.584962,-7.417237,-6.145916,12.17557,-17.69466,26.71756
-0.6392518,-7.592013,-4.999093,-9.351145,-26.34351,-13.05344
1.733402,-8.001422,-4.654328,16.20611,-4.793893,-5.740458
0.06464344,-8.377312,-4.230555,14.80153,7.435114,-4.59542
2.470816,-10.08677,-4.386178,24.58779,17.16794,16.35878
-1.762132,-8.92319,-9.837775,16.75573,-19.83969,22.69466
2.047042,-3.73256,-4.630386,-8.916031,17.42748,18.34351
0.629675,-10.08198,-7.872135,12.53435,16.61832,-25.16031
0.8283938,-6.406884,-3.16274,-8.748092,-7.763359,-17.30534
1.886631,-7.723695,-3.955221,-4.0,-20.41221,-5.267176
1.21386,-8.750807,-4.750096,-15.80916,-24.50382,-8.305344
1.412579,-9.100361,-4.853047,21.51145,-24.47328,-1.763359
1.489193,-8.937555,-3.260903,5.351145,-38.79389,-12.81679
5.542577,-7.074866,-10.22803,-17.20611,43.36641,4.778626
1.158794,-5.26485,-4.762067,-3.068702,-14.29771,-14.07634
1.120486,-8.813056,-7.941567,16.93893,-14.10687,-16.83969
0.9409212,-7.982268,-6.083666,7.885496,-12.42748,24.14504
-0.3543419,-7.66384,-5.193024,-8.511451,-13.96183,-5.687023
1.707066,-9.176975,-5.477933,17.91603,-0.6259542,0.3282443
0.1125275,-7.78355,-3.342306,9.076336,-1.259542,1.122137
1.072602,-8.995016,-4.450821,-21.96947,-4.122138,-11.70229
1.467646,-9.351752,-4.271256,-3.480916,12.12977,13.38931
-1.216254,-11.17613,-8.875306,34.08397,-54.12214,3.48855
2.183512,-5.465962,-5.099649,-17.00763,26.03053,0.8015267
1.383849,-8.360553,-7.058106,-13.00763,11.87023,1.694656
1.335965,-7.627927,-5.319916,2.931298,10.25954,-10.35114
2.607286,-7.022193,-4.333505,-23.43511,13.58015,-1.534351
0.6392518,-8.23366,-4.122815,-3.358779,-6.40458,-1.129771
2.863465,-9.76116,-5.12838,34.56488,-1.748092,-6.641222
1.077391,-8.827422,-2.592921,16.75573,-16.89313,-8.465649
2.92332,-11.28148,-9.648633,28.32825,23.0229,-4.351145
-1.501164,-3.888184,-2.983175,-44.82443,-37.35115,-9.305344
3.122039,-8.865729,-7.132327,17.85496,-22.06107,24.80916
-0.7350199,-6.28478,-3.397372,-30.61069,-35.55725,-8.732824
1.091756,-9.306262,-5.204995,1.267176,-28.22137,-9.687023
1.249773,-8.475474,-3.586514,-5.946565,-6.045802,-7.114504
0.4692635,-8.537724,-4.139575,-6.458015,-2.480916,-8.59542
1.086968,-9.361329,-4.050989,3.954198,-6.694656,2.549618
-2.149993,-11.24796,-9.059659,11.85496,-64.9542,-23.49618
0.5746084,-4.5418,-4.434062,-23.12977,-2.473282,-2.030534
2.075773,-8.39886,-7.218518,-13.42748,9.458015,-16.36641
1.335965,-6.531382,-4.007894,-4.633588,11.29771,-7.763359
2.240973,-7.929596,-5.142745,-15.17557,13.03817,-6.664122
1.292869,-7.706935,-4.501099,-9.564885,4.022901,1.374046
2.310405,-9.078813,-4.764462,18.57252,-14.0,-4.145038
2.784456,-9.677363,-7.13951,-13.38931,8.465649,-11.92366
-0.08858546,-8.078036,-4.807557,0.870229,-33.00763,8.465649
1.266533,-6.708553,-6.318298,12.25954,-3.694656,5.458015
1.941698,-7.905654,-6.323087,15.49618,-5.396946,15.87786
-0.842759,-7.501034,-3.787627,-7.564886,-17.77863,-3.267176
1.347936,-8.549694,-5.193024,-3.984733,-7.19084,-3.641221
0.5985504,-8.085219,-3.438074,0.740458,-1.755725,-6.473282
1.307234,-9.045294,-4.754885,-7.908397,-4.877862,-7.89313
1.412579,-9.366117,-3.689465,0.5114504,18.31298,17.98473
-1.489193,-10.89601,-9.634268,50.9084,-37.38931,-28.47328
2.612074,-5.051765,-5.324705,-28.13741,9.030535,6.969466
0.7685388,-8.542512,-6.878541,48.96947,11.85496,-20.23664
1.477222,-7.524976,-4.721366,-14.51145,-1.083969,-32.19084
1.553837,-7.963115,-4.503493,0.519084,-8.877863,2.610687
1.637634,-9.524135,-4.414908,3.480916,-7.442748,-6.870229
1.910573,-7.568071,-3.787627,-3.587786,-19.9771,-5.465649
3.308787,-8.633492,-9.093178,-15.78626,-2.442748,-25.74046
-0.9959879,-9.689334,-5.056554,-6.984733,-25.21374,-3.427481
0.4932055,-5.224148,-5.901707,-11.53435,-45.21374,-19.29008
2.537854,-7.331046,-6.684611,21.53435,-28.12214,2.534351
-0.213084,-7.536947,-5.006276,13.45802,-38.48855,2.244275
1.295263,-8.12592,-5.597643,1.984733,-32.61069,-22.99237
1.010353,-8.350976,-4.728549,11.9771,-16.1145,-15.10687
0.7302315,-8.511387,-4.328717,-7.687023,-6.587786,-16.19847
0.9911995,-9.14585,-4.122815,6.763359,-9.045801,-1.29771
-1.046266,-11.47301,-7.627927,35.58779,-50.87023,-5.80916
0.6967127,-5.868188,-5.755661,10.99237,20.93893,-12.50382
1.036689,-9.516952,-7.929596,1.305344,5.030534,-7.847328
1.422156,-6.79235,-4.637568,6.312977,-4.587786,-17.70229
1.582567,-7.912837,-4.448427,-3.10687,-2.351145,-6.969466
1.13964,-8.202535,-3.591303,-11.70229,-15.52672,-5.274809
2.738967,-8.820239,-4.826711,4.938931,-9.839695,0.9160305
0.7613561,-9.210494,-2.983175,9.534351,-29.37405,-17.42748
5.269638,-7.615956,-7.350199,5.335878,12.59542,-2.877863
0.3232172,-6.617573,-5.142745,23.27481,-55.43512,-22.82443
1.326388,-9.246407,-7.371747,2.351145,-32.25954,-36.08397
0.5913678,-7.785944,-5.695806,14.12977,-31.58015,7.557252
0.009576806,-7.469909,-4.649539,-12.16794,-37.09924,-17.03053
1.798046,-8.724471,-5.193024,8.717557,-7.78626,0.5038168
0.5386954,-7.936779,-3.608062,-11.85496,4.48855,-5.908397
1.78368,-9.82341,-5.228937,-12.50382,4.030534,-4.847328
1.115698,-8.516175,-3.366248,-15.79389,16.75573,8.045801
-0.5722142,-10.77391,-7.280767,20.24427,-24.56489,18.37405
1.73819,-6.100426,-6.531382,13.24428,18.07634,-3.137405
0.605733,-9.203311,-7.570466,22.27481,5.473282,-5.08397
0.4860229,-7.292738,-5.724536,-2.854962,-17.41985,-26.54198
2.27928,-7.759608,-5.145139,-6.793893,0.6564885,-4.129771
0.9864111,-8.267179,-4.750096,-9.541985,-14.9084,-8.183207
1.527501,-8.279149,-4.647145,-8.442748,-15.51908,-1.274809
1.290475,-8.760384,-4.465186,12.32061,-12.1374,-1.351145
3.354277,-9.842564,-7.235278,7.48855,8.763359,-31.69466
-1.570596,-10.4866,-6.169858,34.50382,-17.9542,24.34351
2.600103,-6.030994,-7.00304,-25.22901,-16.0687,-14.12977
2.161964,-6.895301,-5.853823,-8.717557,-6.282443,0.5954198
0.04070143,-7.747637,-5.152322,22.48092,-13.0,17.83969
0.9576807,-8.020576,-5.846641,-6.274809,-17.22137,-8.244275
0.85473,-8.116343,-4.817134,1.916031,-0.3129771,3.885496
0.1628057,-8.327033,-4.671088,-8.167939,-5.992366,-3.770992
1.242591,-9.100361,-4.735731,5.977099,5.770992,0.3664122
0.8978256,-8.588001,-6.224925,-44.70992,5.21374,15.27481
1.309628,-7.110779,-5.317522,-0.6641222,2.335878,6.068702
1.154005,-6.538565,-6.423643,-0.8244275,7.473282,-3.977099
0.7230489,-8.549694,-6.373365,-4.068702,9.732824,-5.870229
1.33357,-7.635109,-5.556942,11.0916,1.824428,-23.35114
2.121263,-7.029376,-4.711789,-2.396947,13.03053,-4.145038
0.8044518,-8.808268,-5.030218,0.3129771,0.7862596,-5.770992
1.869872,-8.274361,-4.402937,-7.122138,-4.038168,1.816794
1.393425,-9.088389,-4.8722,3.610687,2.755725,10.32824
0.6488287,-9.131485,-3.715801,-4.687023,-19.92366,-8.267176
2.604892,-10.49379,-6.540959,21.96183,17.73282,-5.70229
1.975216,-7.134721,-5.118803,18.87786,-15.22901,9.763359
0.5363012,-6.825869,-6.251261,-29.25954,-6.816794,-21.33588
3.433285,-7.668628,-6.914454,16.73282,6.603054,46.41221
0.1891419,-6.876147,-4.400543,-17.15267,1.374046,10.42748
1.582567,-8.731653,-5.425261,-0.8167939,8.152672,6.175572
0.9002198,-8.09719,-4.022259,-9.496183,19.9313,8.923664
0.07422025,-9.023746,-4.608838,-0.4503817,17.71756,0.3358779
1.429338,-8.968679,-4.936844,-4.335878,28.99237,4.908397
0.6248866,-9.694122,-7.25922,-37.67939,9.664123,22.05343
1.335965,-7.776367,-5.56173,34.65649,15.46565,-26.9313
1.68073,-6.703765,-6.823475,-17.14504,-2.312977,21.47328
2.001553,-7.845799,-6.483498,19.48855,9.030535,-17.63359
2.015918,-7.522582,-5.827487,-1.465649,9.793893,-8.137404
2.305616,-7.414843,-5.051765,-0.09160305,23.76336,12.94656
1.295263,-8.044518,-4.48434,-6.40458,9.603053,-2.267176
2.013524,-7.678205,-4.225766,-18.26718,-2.305344,6.557252
1.898602,-9.68694,-5.480328,6.80916,-0.3206107,11.74809
3.081338,-10.18972,-8.049306,-25.64886,24.37405,-17.53435
0.8092402,-7.960721,-5.152322,-7.625954,-9.40458,-3.053435
2.588132,-6.868965,-6.466739,-4.198473,4.305344,-1.198473
0.9576807,-7.929596,-6.696582,13.53435,-4.778626,5.198473
1.113304,-8.013393,-5.918467,19.98473,-2.274809,29.39695
0.7589619,-7.551312,-5.090073,-2.854962,-2.129771,13.54198
0.878672,-8.327033,-4.876989,-5.08397,2.396947,-0.5725191
0.7589619,-8.415619,-4.132392,-4.70229,10.31298,2.885496
1.45328,-9.093178,-4.644751,-12.75572,16.71756,-5.450382
1.448492,-8.956709,-3.89776,-13.9084,23.66412,3.427481
-0.4189853,-11.73398,-7.874529,-22.67939,-28.69466,16.36641
1.321599,-6.246472,-6.995857,-3.305344,15.47328,-11.87786
1.855506,-6.483498,-6.900089,-25.72519,2.274809,-8.519084
0.8762778,-7.175423,-7.165846,14.44275,-2.618321,-26.74046
2.851494,-6.751649,-5.497087,-9.206107,8.679389,-22.75573
1.570596,-7.996634,-5.21936,0.3358779,0.8473283,-6.38168
1.838747,-8.731653,-4.716578,23.72519,-12.21374,-8.664123
1.740585,-7.625533,-3.797204,-10.54198,-22.53435,-4.725191
1.836353,-7.745243,-4.359841,-5.854962,-19.84733,6.877862
3.948039,-10.2807,-8.403648,35.25954,30.52672,4.351145
-1.321599,-10.35492,-4.932055,26.53435,-14.16794,-0.5343512
3.469198,-7.050924,-7.924808,-29.0,-2.343511,-15.57252
0.6655881,-7.161057,-5.635951,7.725191,-9.893129,-0.3282443
0.5746084,-7.788338,-5.640739,18.35878,-13.68702,18.48855
0.7757214,-8.013393,-5.216966,-3.022901,-11.65649,6.29771
1.905785,-7.371747,-4.22816,0.7022901,16.51908,6.21374
1.00317,-8.303091,-4.96318,6.633588,23.61069,7.977099
2.224213,-10.6542,-4.477157,-11.50382,2.908397,-9.38168
-0.2585738,-11.1905,-8.367735,58.46565,-42.54198,7.526718
0.08379706,-6.92882,-5.731719,-13.83206,-5.541985,-8.824428
2.094927,-7.034164,-6.624756,13.67176,10.85496,-0.2519084
1.458069,-7.687782,-5.906496,-2.396947,10.78626,-17.12977
2.343924,-7.785944,-5.157111,-3.847328,5.167939,-1.465649
1.484405,-7.642292,-3.818752,2.977099,-0.6335878,-0.8625955
2.13084,-9.651027,-6.416461,-17.29771,-24.48092,-5.137404
0.2825158,-9.050082,-3.615245,11.27481,-25.55725,-9.328244
3.04303,-10.83137,-6.560112,14.17557,-1.572519,-20.51145
-0.557849,-9.021352,-6.938396,37.24427,-20.74046,-3.145038
1.161188,-7.474698,-7.532158,-22.83206,-13.98473,-27.83969
2.738967,-6.76362,-6.16507,0.3816794,-0.7557252,26.81679
-0.3878607,-7.608773,-5.420473,6.633588,-5.740458,8.076336
1.51553,-8.034941,-5.149928,3.519084,0.8396947,-3.564885
1.403002,-8.434772,-4.627992,16.12214,11.87023,2.038168
1.297657,-8.183381,-4.118027,-9.450381,3.022901,-6.564886
1.80044,-8.568848,-3.466804,-9.946565,10.62595,5.992366
-0.605733,-11.85369,-6.754043,-0.007633588,-11.48092,7.931298
1.158794,-6.579266,-5.90889,7.541985,16.80916,-3.748092
3.052607,-6.952762,-6.785168,-14.07634,2.984733,5.022901
-0.1077391,-7.07726,-5.602432,8.305344,-16.74046,-32.42748
2.980781,-8.013393,-6.236896,10.15267,-3.725191,-10.96183
1.546654,-7.417237,-4.378995,-6.717557,-13.64886,-12.38931
2.47321,-7.979874,-4.67827,-6.282443,-8.946565,-2.572519
1.49877,-8.631097,-4.635174,3.80916,-13.29008,2.755725
0.7924808,-9.184157,-3.713407,4.412214,-39.24427,-13.42748
5.243302,-7.371747,-10.40041,-12.07634,51.50382,-8.053435
0.5434838,-6.490681,-5.044583,13.94656,-33.70229,-14.65649
-0.08858546,-8.813056,-7.639898,1.717557,-16.47328,-15.85496
1.666364,-7.374141,-5.95438,9.40458,-9.396947,32.0687
-0.1077391,-7.740454,-5.245696,-20.16031,-16.16794,-6.137404
1.529895,-8.001422,-4.982334,3.847328,-5.534351,-3.572519
0.1795651,-8.365341,-4.826711,8.061069,-14.74046,-10.51908
0.9337386,-8.611943,-4.285621,15.48092,-12.50382,-20.64122
0.6751649,-8.889671,-4.879383,-64.87786,-11.9542,-1.175573
0.6991069,-9.131485,-8.513782,40.67176,-20.40458,-21.96183
0.7996634,-5.26485,-5.801151,-22.70229,-21.48855,-18.9084
0.8738836,-8.578424,-7.553706,35.39695,-4.931298,-12.43511
2.0231,-7.137115,-5.647922,1.076336,-9.091603,-25.21374
1.620875,-7.366959,-4.862624,8.679389,-4.29771,-12.22901
2.229002,-8.631097,-5.094861,-0.8931297,-4.717557,-7.496183
1.78368,-8.322245,-4.453215,-0.7633588,-4.61832,0.2977099
1.467646,-7.769185,-3.881001,-13.22901,-12.19084,-2.564885
2.032677,-9.279925,-4.455609,4.183206,-27.0687,4.709924
4.168305,-7.680599,-6.344635,-18.09924,29.33588,-5.160306
0.7110779,-5.995081,-5.664681,38.23664,-42.24427,-7.419847
2.406173,-8.671799,-7.848193,-5.435114,-7.374046,-16.35114
0.830788,-7.73806,-5.880159,8.541985,-15.83206,13.24428
0.9816227,-7.603985,-5.511452,-4.519084,-17.30534,-5.946565
1.675941,-7.939173,-4.910508,0.8396947,-0.648855,-0.06870229
0.7685388,-8.207323,-4.268862,8.022901,0.1984733,-11.03817
1.75495,-8.628703,-4.455609,1.145038,2.244275,-17.23664
2.173935,-9.179369,-4.106056,-15.40458,8.549619,12.12214
-0.3351882,-11.01572,-10.21845,53.87786,-27.31298,-4.694656
-0.2777274,-5.176264,-5.707777,-19.59542,-27.74809,-18.36641
2.06859,-8.576031,-7.326257,23.34351,-4.007634,-25.67939
0.5626374,-7.086837,-5.781997,-4.954198,-18.48092,-34.31298
2.099715,-7.472303,-5.195418,11.75572,-6.259542,-6.175572
1.429338,-8.075643,-4.599261,-5.572519,-11.9084,-5.29771
1.711854,-8.719683,-5.370194,0.2824428,-9.442748,-0.6946565
0.9313444,-8.482656,-4.27365,8.045801,-23.75573,-7.137404
3.241749,-5.961562,-9.873688,-30.83969,-13.01527,-27.54962
-2.600103,-11.3533,-5.159505,31.59542,-41.17557,-3.21374
2.461239,-3.641581,-5.758055,-38.05344,-19.69466,-18.01527
2.305616,-7.369353,-6.722919,6.320611,-14.58779,-7.137404
-0.2896984,-7.187394,-5.343858,2.59542,-27.56489,-2.664122
2.061408,-8.339005,-6.758832,7.816794,-1.694656,-5.938931
1.091756,-7.742848,-5.085284,12.16031,4.167939,0.259542
0.9504981,-8.820239,-5.05416,1.877863,2.648855,-12.82443
1.546654,-8.762778,-4.141969,18.77099,8.282443,1.519084
-0.1867477,-8.604761,-3.521871,-11.03053,-4.320611,-5.946565
0.4908113,-9.504981,-6.969521,-8.21374,-30.22901,-2.694656
1.58975,-9.339781,-6.495469,11.19084,-23.33588,-23.29771
0.9409212,-5.707777,-6.009446,-7.229008,-5.152672,-0.6335878
1.695095,-9.572019,-7.137115,21.53435,0.2366412,-23.58779
1.551443,-7.299921,-5.075707,-1.572519,0.3282443,-16.87023
1.400608,-8.147469,-4.81474,-6.366412,-10.24428,-9.80916
1.343147,-7.860164,-4.110844,-10.0458,-16.76336,-4.687023
1.824382,-9.160215,-5.516241,-3.0,-9.167939,-2.374046
0.8762778,-8.846576,-3.96001,5.603054,-25.72519,-9.389313
2.856283,-10.74757,-5.820304,14.12977,9.259542,-14.18321
-1.149217,-9.069236,-6.519411,33.27481,-25.41985,-4.374046
0.7326257,-7.395689,-7.189788,-22.99237,-23.36641,-22.16031
1.807622,-7.13951,-6.071695,-1.80916,-16.51145,-3.442748
0.2944868,-7.352593,-5.389348,0.9007633,-21.0229,5.129771
1.42455,-8.420407,-6.138733,1.076336,-14.12214,-11.83206
1.189918,-7.836222,-4.671088,0.5038168,0.05343511,-6.091603
1.39582,-8.528147,-5.475539,-5.51145,1.328244,-7.0
0.9217676,-8.829816,-4.458004,19.89313,-1.977099,-4.396946
-0.5003881,-10.36211,-7.180211,-18.48092,-38.77099,-7.061069
2.008735,-5.482722,-5.492299,-5.435114,13.77863,-5.625954
2.138022,-6.059724,-6.588843,-23.58015,-3.770992,2.061069
1.039083,-8.101978,-6.440403,25.83206,0.9465649,-24.21374
2.662352,-6.655881,-5.197812,-12.83206,5.221374,-13.55725
1.802834,-8.259995,-5.779603,-6.396946,4.045802,-6.030534
1.723825,-8.195353,-4.994305,-0.9847328,-13.68702,-8.053435
2.549825,-7.879318,-4.786009,-2.427481,-4.152672,5.610687
1.534683,-8.384495,-4.532224,4.0,-15.18321,0.9770992
3.342306,-8.542512,-6.181829,-10.30534,-6.351145,-9.282443
0.617704,-9.275137,-5.949591,11.62595,-1.801527,18.50382
2.813187,-6.181829,-7.055712,-35.33588,-10.32061,-3.80916
0.8331822,-6.452374,-6.454768,6.641222,-15.10687,-2.992366
1.611298,-7.551312,-6.596025,18.96183,-11.47328,15.64886
0.4285621,-7.13951,-5.633556,4.610687,-16.53435,-1.80916
0.6895301,-8.032547,-5.825093,9.015267,-10.63359,-5.91603
0.6991069,-8.422802,-5.430049,10.0,-5.061069,-5.312977
0.8044518,-8.401254,-4.623203,5.763359,6.801527,-1.274809
0.7637503,-8.63828,-4.323928,-0.8015267,9.740458,-8.526717
1.000776,-8.453926,-4.407725,-21.39695,8.488549,-7.351145
1.33357,-9.617508,-4.182671,-19.37405,18.35114,15.01527
0.8331822,-9.497798,-6.349423,9.633588,-24.61832,-5.351145
1.16837,-7.211336,-7.78355,10.93893,26.50382,4.549618
0.1604115,-9.643845,-6.950367,-1.29771,17.27481,-9.847328
2.03986,-6.335058,-5.221754,2.70229,21.67175,-5.21374
2.008735,-8.190564,-5.640739,-5.748092,22.45038,6.022901
1.221043,-7.781156,-4.304775,-8.496183,9.526717,1.198473
1.623269,-8.283937,-4.654328,-6.549618,-9.870229,4.51145
2.425326,-8.693346,-5.549759,10.12977,6.51145,8.480916
2.252944,-8.645462,-6.033388,-41.40458,-2.465649,-14.45802
0.5650316,-9.847352,-6.098032,-2.374046,2.832061,10.16794
1.271321,-4.663905,-5.166687,-24.14504,-5.824428,-7.343512
1.968034,-7.996634,-7.134721,13.53435,-2.572519,5.076336
0.1675941,-7.73806,-5.77242,12.78626,-6.427481,23.67939
0.9074024,-7.773973,-5.944803,-4.137404,-4.282443,0.6335878
1.362301,-8.080431,-5.372589,4.389313,10.07634,0.2137404
0.6248866,-8.283937,-4.656722,10.10687,7.183206,5.885496
1.302446,-8.880095,-4.580108,5.732824,6.007634,-0.02290076
0.6847417,-8.681376,-4.486734,-34.76336,7.603054,7.732824
0.2466028,-9.91439,-7.25922,30.65649,-31.61069,-29.20611
0.9768343,-6.014235,-5.736507,-4.183206,3.587786,4.557252
0.6129156,-9.471462,-7.297527,3.152672,-5.152672,-17.69466
1.855506,-6.76362,-5.374983,-4.587786,7.961832,-18.80153
1.443704,-8.336611,-5.62398,-9.870229,2.89313,-1.687023
1.355118,-8.128315,-4.63278,-11.46565,-4.129771,-0.5114504
1.841141,-8.92319,-5.118803,4.068702,-6.274809,-1.824428
1.793257,-9.102755,-4.323928,20.96183,-4.38168,1.816794
4.132392,-8.50181,-7.343017,1.0,42.05344,3.007634
-0.3160346,-8.51857,-6.172252,27.87786,-29.77099,-13.87786
-0.3758897,-8.339005,-6.332664,-5.923664,-10.35878,-8.526717
1.860295,-8.880095,-6.572083,20.9313,-0.8473283,18.37405
-0.08140286,-7.352593,-4.338294,-10.31298,-8.931297,3.664122
0.8595184,-8.7125,-5.061342,-7.335878,-3.847328,-3.236641
0.9959879,-8.422802,-4.084508,2.335878,5.900764,-2.145038
0.9768343,-8.355764,-4.48434,-9.534351,0.5419847,-11.48855
1.668759,-9.459491,-3.950433,-2.641221,14.06107,4.770992
-0.7398083,-11.1067,-7.754819,0.9236641,-40.57252,4.503817
2.516306,-5.449203,-6.694188,-11.10687,32.93893,10.76336
-0.4070143,-8.580819,-6.780379,-21.25191,1.175573,-0.2519084
1.695095,-6.785168,-5.365406,12.94656,16.68702,-7.450382
1.953669,-7.431602,-5.130774,-10.96183,9.511451,-1.824428
1.364695,-8.173804,-4.807557,5.442748,5.21374,4.099236
2.336741,-8.032547,-5.106832,-8.145039,-5.984733,1.114504
1.00317,-9.124303,-4.829105,18.47328,-13.64122,4.290076
1.09415,-8.930372,-3.404555,-36.67176,-35.80916,-27.40458
3.986346,-6.026206,-9.155427,11.90076,8.778625,8.083969
0.8140285,-4.299986,-5.185841,-21.80153,-31.26718,-32.59542
2.760514,-8.377312,-7.924808,27.19084,-17.61832,21.05343
-0.344765,-6.890512,-4.69503,-8.862596,-12.41221,0.4274809
1.426944,-8.391677,-5.65271,11.68702,-1.496183,-2.778626
0.8499416,-8.128315,-3.945644,22.20611,2.633588,5.206107
0.5147533,-8.176199,-4.745308,-14.15267,-9.419847,-14.15267
2.087744,-9.720459,-5.238513,23.36641,-10.03053,-0.3053435
0.308852,-7.711724,-3.780444,-60.80153,29.39695,22.29771
1.922544,-8.564059,-7.718906,65.03053,4.755725,0.09923664
0.2394202,-9.536105,-6.354211,-28.53435,-4.641222,-26.58779
0.7350199,-6.160281,-5.046977,18.38168,15.9084,2.610687
2.621651,-8.544906,-6.464345,-7.839694,-1.824428,-23.42748
0.9241618,-7.627927,-4.381389,-4.671756,-4.244275,-16.9084
1.347936,-7.843405,-4.747702,-12.91603,-26.59542,-4.717557
2.382231,-9.497798,-5.099649,17.73282,-4.206107,1.465649
1.21386,-10.77391,-4.953603,14.35878,-6.076336,-17.13741
-0.2011129,-9.301474,-7.611167,25.41985,-23.58015,-5.274809
0.7326257,-5.755661,-5.758055,-29.84733,-16.32061,-30.50382
2.214637,-8.161834,-6.830657,17.23664,-24.10687,13.00763
-0.7613561,-7.132327,-4.742914,-13.8626,-31.16031,-17.29771
1.94888,-8.231265,-5.753267,11.0458,-14.54962,-0.5343512
0.1556231,-8.248025,-4.422091,7.175572,-7.717557,-12.23664
1.058237,-8.813056,-4.879383,2.366412,-6.557252,-10.87786
0.3112462,-9.859323,-6.744466,-26.07634,-22.33588,20.45802
2.106898,-6.090849,-5.995081,1.748092,0.7099237,-17.72519
2.437297,-6.016629,-6.090849,-0.7251908,-6.70229,3.839695
0.332794,-9.454702,-7.477092,30.21374,-5.129771,-33.85496
2.442086,-6.670246,-5.00867,-7.229008,-2.603053,-21.81679
0.8738836,-8.726865,-5.559336,10.03817,-5.061069,-7.259542
1.024718,-8.087613,-4.261679,-7.374046,-20.19084,-10.48092
1.793257,-9.23683,-5.453991,14.78626,-10.84733,3.580153
0.9241618,-8.2169,-3.462016,-1.694656,-26.0229,-5.977099
4.276044,-9.165004,-8.027759,11.0916,29.45802,-6.290076
1.079785,-6.294356,-6.856994,5.778626,-46.91603,-45.19847
1.841141,-8.121132,-7.184999,-3.648855,-17.56489,-10.46565
1.086968,-7.156269,-5.346252,10.19084,-18.0,17.08397
0.9097966,-8.453926,-5.482722,-3.770992,-16.00763,-9.740458
1.577779,-7.682993,-4.115633,14.61069,1.480916,1.274809
0.6847417,-9.660604,-4.886566,7.480916,1.473282,-13.41221
1.731008,-8.810662,-3.711013,14.61069,2.59542,-2.374046
-1.819593,-11.38922,-9.002198,62.45802,-50.70229,17.53435
1.707066,-4.817134,-5.200206,-10.30534,-2.641221,-3.259542
-0.4572925,-10.5704,-7.515399,7.358778,8.244275,-20.23664
1.774103,-7.575254,-4.52983,2.10687,4.89313,-12.51145
1.103727,-8.300697,-4.616021,-6.251908,0.2290076,-5.89313
1.151611,-9.030929,-4.721366,-4.839694,-13.0,-9.732824
2.422932,-8.298303,-3.89776,8.198473,-0.7557252,2.129771
2.693477,-8.39886,-7.041347,4.984733,9.480916,-18.28244
0.3495534,-9.406818,-6.181829,0.740458,-10.75572,1.526718
1.388637,-6.325481,-5.499481,-3.48855,-24.67939,1.366412
0.4189853,-7.979874,-6.0286,-9.335877,-32.0458,-20.13741
0.5123591,-8.178593,-4.812346,20.49618,-37.22137,6.465649
0.8690952,-8.295909,-5.001487,-15.75572,-25.45802,-17.22901
1.819593,-8.765172,-4.503493,9.839695,-3.10687,-8.320611
