ax,ay,az,gx,gy,gz
1.338359,-8.927979,-5.750873,1.961832,-17.17557,-4.770992
1.932121,-7.881712,-4.606444,-6.458015,-13.8855,-1.335878
2.509123,-7.951144,-4.96318,0.9923664,-6.030534,17.35114
1.651999,-8.377312,-5.307945,-10.48855,-20.82443,1.48855
1.441309,-9.306262,-7.254431,4.267176,19.77863,-19.33588
0.1987187,-7.48188,-5.923255,9.534351,-18.03817,4.793893
0.5889736,-7.570466,-6.277597,-6.374046,-12.19084,3.885496
0.6823475,-7.838616,-5.518635,16.26718,-4.236641,16.63359
-0.06224924,-7.917625,-5.38456,-5.503817,2.229008,12.90076
0.9624691,-7.797915,-5.279215,-4.572519,10.9542,6.725191
0.01915361,-8.322245,-5.142745,-8.152672,8.160305,9.328244
0.4692635,-8.37013,-5.465962,-7.015267,4.351145,1.412214
1.199495,-8.362947,-5.078102,-4.51145,14.42748,7.122138
0.5674258,-8.236053,-4.807557,-6.08397,16.94657,6.610687
1.455675,-8.408437,-4.781221,-9.160305,28.74046,0.4656488
1.702277,-8.688558,-4.790798,-11.87023,32.65649,8.312977
0.5913678,-9.323022,-6.6894,-28.52672,-10.71756,17.03053
1.158794,-6.797139,-5.604826,-8.572519,26.41221,-3.564885
0.605733,-7.089231,-6.624756,29.64886,-3.687023,-15.00763
1.728614,-9.363723,-6.830657,22.67939,-6.534351,-28.77863
1.180341,-6.955156,-5.207389,-12.0687,-12.99237,-20.78626
2.255338,-7.881712,-5.193024,-1.091603,-10.33588,-7.534351
2.39899,-7.805098,-4.841076,-19.1145,-5.374046,-2.473282
2.461239,-8.365341,-5.336676,-0.6717557,3.572519,12.87786
1.546654,-8.743625,-4.223372,4.435114,6.862596,13.36641
2.810793,-11.01572,-8.018182,8.251908,30.16031,-21.9771
1.417367,-6.014235,-5.051765,1.648855,-0.9465649,23.89313
0.6368576,-6.873753,-6.093243,2.442748,0.9847328,1.519084
1.771709,-9.009381,-6.773197,23.51145,-2.755725,20.86259
0.3423708,-7.467515,-4.534618,-6.587786,0.1068702,18.35114
0.9840169,-7.841011,-5.030218,-5.053435,6.137404,6.412214
1.101333,-8.681376,-5.118803,-15.19847,5.519084,0.3358779
1.412579,-8.63828,-5.221754,-5.122138,15.01527,0.9541985
2.298434,-8.133103,-4.510676,-9.427481,35.29771,10.94656
0.3663129,-8.358158,-6.665458,-68.12214,47.30534,29.71756
-1.757344,-9.188946,-6.569689,33.38168,-15.48092,-0.2824428
1.596933,-7.299921,-5.93762,-3.480916,20.58015,-11.67939
1.496376,-6.897695,-5.616797,-1.78626,20.86259,2.717557
0.7038953,-8.063671,-6.002264,31.10687,18.80153,-14.83969
2.882619,-7.596802,-4.627992,-17.19847,5.526718,-8.725191
2.080561,-7.893683,-3.720589,13.67176,-4.541985,6.648855
1.886631,-8.896853,-4.659117,-4.251908,-3.305344,4.91603
1.675941,-9.200917,-3.833117,8.267176,-6.114504,1.045802
1.932121,-9.43076,-6.210559,-18.03053,-12.64886,-34.08397
1.474828,-9.255983,-6.131551,13.54198,-23.90076,-6.366412
1.204283,-6.806715,-5.865794,-27.29771,-35.89313,-47.27481
3.263297,-7.982268,-7.046135,35.35878,-35.32061,15.60305
0.3854665,-6.813898,-4.532224,-13.24428,-26.01527,1.854962
1.584962,-8.3821,-5.272032,-3.977099,-8.977099,-3.40458
1.975216,-8.173804,-4.175488,9.641221,11.61069,-2.862595
2.018312,-8.956709,-4.560954,15.36641,20.38168,-2.80916
1.532289,-9.734824,-5.956774,-51.55725,1.328244,12.98473
0.2585738,-8.487445,-5.963956,23.25954,5.59542,-12.29008
-0.2466028,-6.555324,-4.374207,-8.778625,-30.9542,-5.08397
0.4213795,-8.777143,-6.514623,36.83969,11.51908,6.076336
2.23379,-7.536947,-4.955997,-31.45802,9.38168,-31.21374
2.343924,-8.06846,-4.556166,-5.679389,5.725191,-3.633588
1.216254,-8.62152,-4.06296,-4.389313,-14.72519,2.396947
1.455675,-9.275137,-4.697424,10.61069,-0.9389313,11.8626
0.3902549,-8.343793,-2.597709,-3.557252,-34.69466,-3.40458
5.149928,-7.939173,-9.497798,7.664122,2.740458,-28.06107
2.401384,-6.833052,-4.510676,20.8855,-37.05344,-9.778625
0.9528923,-7.053318,-6.356606,5.206107,-9.78626,-27.10687
3.050213,-7.912837,-7.108385,17.83206,-12.67176,1.885496
0.1723825,-8.010999,-4.721366,-11.38168,-27.70229,5.221374
1.810017,-8.283937,-4.752491,-8.465649,-5.923664,5.587786
1.010353,-8.267179,-4.053383,6.412214,9.702291,-2.083969
0.5003881,-9.727641,-4.599261,3.778626,-1.175573,-11.63359
2.202666,-8.645462,-3.684676,-7.549618,16.52672,-3.641221
-0.1292869,-10.89841,-5.932832,4.167939,1.122137,26.81679
0.1221043,-8.128315,-6.435614,0.351145,-16.93893,-25.22901
0.9193734,-6.569689,-5.619191,1.816794,-30.08397,-20.32825
1.16837,-8.738836,-7.340622,27.70229,-15.22901,-29.14504
3.172317,-7.182605,-5.157111,-6.717557,-18.16794,-31.40458
0.842759,-7.730877,-4.264073,-3.145038,-16.66412,-5.519084
2.138022,-8.707711,-4.807557,-3.29771,-28.67175,-10.67176
1.910573,-8.568848,-3.627216,14.01527,-25.9771,-7.08397
2.334347,-8.99741,-6.804321,22.54198,-4.526718,-32.85496
0.8690952,-8.987833,-7.668628,21.15267,-29.10687,14.61069
-1.194707,-5.810728,-4.572925,-12.32824,-51.19084,-31.96947
2.573767,-8.896853,-7.271191,16.61069,-33.15267,2.381679
-0.56982,-6.847417,-4.314352,-9.717557,-45.05344,-15.9771
1.474828,-8.401254,-5.276821,3.473282,-25.56489,-11.83206
0.7062895,-8.865729,-4.618415,-4.763359,-8.083969,-22.16031
1.35033,-9.234436,-4.592079,11.22901,2.977099,-16.78626
1.505953,-8.822633,-4.441244,-25.34351,7.770992,11.73282
-1.35033,-9.172187,-5.516241,27.55725,-31.83206,-9.244275
1.441309,-7.575254,-6.421249,-5.923664,-4.40458,-25.72519
1.80044,-7.872135,-6.167464,-9.847328,3.10687,-14.54962
1.616086,-7.802703,-5.585672,31.03817,-6.503817,-17.0458
1.637634,-7.93199,-4.326323,-15.12977,-5.312977,-21.57252
1.673547,-8.037335,-3.964798,-10.0916,-22.67175,-10.67939
1.742979,-9.093178,-4.869806,5.679389,-33.51908,-12.50382
2.722207,-8.875306,-3.634398,11.37405,-19.78626,-1.633588
2.446874,-10.47463,-6.033388,19.60305,18.45802,-29.77863
0.4261679,-9.411607,-8.12592,26.82443,-40.9542,-8.175572
-0.4357447,-6.114791,-5.887342,-19.9313,-41.44275,-29.20611
2.293645,-8.535329,-6.560112,1.29771,-23.18321,16.79389
-1.292869,-7.328651,-4.46758,-9.839695,-42.40458,-17.98473
1.594538,-8.073248,-5.506664,7.992366,-29.39695,-12.72519
1.812411,-8.432379,-4.611232,-5.396946,-1.755725,-14.48092
0.4955997,-8.899248,-4.546589,19.29008,-9.389313,-10.22901
1.841141,-8.865729,-4.417302,-7.969466,-1.70229,15.71756
-0.3016694,-10.74039,-8.822633,27.74046,-15.01527,-22.08397
1.173159,-5.475539,-6.438008,-4.984733,1.091603,-24.35114
1.209072,-9.962274,-7.261614,11.83969,9.106871,-27.1145
1.719037,-7.026982,-5.260061,-3.473282,1.648855,-25.23664
2.193089,-7.33344,-4.896142,-5.274809,8.580153,10.64122
1.690306,-8.190564,-3.648763,-18.28244,-13.0229,-2.480916
2.559402,-8.868123,-4.999093,20.48855,-10.70229,-5.320611
3.339911,-9.01417,-5.183447,20.25954,6.610687,-7.068702
1.309628,-9.955091,-7.771579,25.16794,-23.58779,-17.09924
-1.343147,-7.548918,-5.877765,-2.885496,-44.76336,-11.40458
2.384625,-7.462727,-5.928043,10.1374,-24.78626,6.625954
-0.4548983,-7.323863,-4.778827,12.53435,-35.12977,5.427481
0.6727707,-8.099585,-4.817134,-13.23664,-29.20611,-23.39695
2.032677,-8.343793,-3.684676,5.29771,9.519084,5.282443
0.009576806,-9.095572,-3.069367,-1.450382,15.0916,2.519084
0.6320692,-11.41077,-7.852982,-43.70229,-37.55725,7.824428
-0.1699883,-5.523423,-4.110844,6.152672,1.763359,-23.09924
3.289633,-7.278373,-6.936002,-17.69466,8.748092,5.992366
1.029507,-7.589619,-5.590461,13.92366,22.41221,-10.37405
2.904167,-7.501034,-5.370194,-4.061069,29.86259,-0.9847328
1.606509,-8.516175,-5.08289,-17.83206,24.73282,6.206107
1.015141,-8.674192,-4.247314,-4.954198,4.396946,10.58015
2.331953,-8.425196,-4.984728,-9.473283,-1.259542,16.08397
1.436521,-8.683769,-4.31914,-3.015267,-22.85496,-0.4961832
2.770091,-9.004593,-4.699818,10.25954,-7.419847,-4.557252
2.32477,-7.821857,-7.57286,34.03817,-0.3206107,3.610687
-0.2992752,-6.947973,-6.770802,-5.496183,-21.08397,-17.96947
1.96564,-8.346188,-6.528988,10.39695,-11.41985,1.267176
0.5746084,-7.177817,-4.489128,1.328244,-5.862596,18.08397
0.5913678,-8.901642,-5.760449,-2.931298,-6.847328,-5.587786
1.692701,-8.848969,-4.065354,-3.854962,1.961832,-5.007634
0.6272808,-9.018958,-3.967192,4.480916,16.03053,2.656489
0.9648633,-8.899248,-3.835511,3.450382,28.45802,11.58779
-1.371878,-10.95108,-8.927979,62.0687,-49.38931,-7.259542
0.4165911,-6.667852,-5.856217,-15.68702,0.09160305,-35.31298
2.059013,-8.137892,-7.52737,11.1145,20.15267,7.877862
1.960851,-8.025364,-5.08289,-14.81679,15.73282,-13.29008
2.925714,-6.069301,-5.432444,1.458015,20.32061,0.9694656
1.651999,-8.394072,-5.616797,-24.9771,17.82443,14.54198
1.35033,-8.611943,-4.414908,-16.45802,1.572519,10.37405
1.889025,-8.880095,-4.577713,8.473283,4.076336,17.34351
1.80044,-8.255207,-3.974375,-26.0,-2.419847,3.076336
3.433285,-7.929596,-8.003817,-3.022901,46.52672,1.633588
2.276886,-6.722919,-4.702212,-12.22137,-9.114504,12.58779
0.3758897,-6.852205,-5.865794,8.351145,-11.38931,-0.9923664
1.221043,-8.085219,-6.308722,9.015267,-20.17557,22.82443
0.9457096,-7.144298,-4.204218,-32.55725,-12.93893,-4.221374
0.9696517,-8.451532,-4.79798,13.87023,-18.15267,-5.198473
1.503559,-8.429984,-4.070143,4.206107,6.458015,-4.832061
1.982399,-8.990228,-4.608838,3.099237,19.48855,-0.5496183
0.7110779,-10.3214,-6.677429,-35.82443,8.007633,16.68702
0.3639187,-7.297527,-6.035782,23.30534,22.47328,-6.78626
2.964022,-5.918467,-6.375759,-26.29771,26.45802,12.33588
0.7445967,-8.635885,-6.677429,11.12977,38.03817,-14.62595
2.597709,-7.034164,-4.788404,-19.03053,38.53435,3.137405
0.8331822,-8.379706,-4.335899,-15.46565,5.167939,5.51145
1.091756,-9.394848,-4.637568,4.694656,-16.49618,-1.122137
1.383849,-8.803479,-3.866636,9.122137,-17.70229,8.167939
3.576937,-10.93192,-6.811504,11.55725,20.83206,-30.24427
0.2059013,-8.76996,-6.524199,4.465649,-49.8168,-12.96947
0.2896984,-7.005434,-6.569689,-7.641222,-29.14504,-8.083969
2.614468,-7.448361,-6.947973,-2.51145,-13.0,6.015267
0.237026,-7.43639,-5.032612,-3.10687,-13.84733,4.206107
1.199495,-8.444349,-5.118803,6.167939,-5.549618,-5.061069
1.726219,-8.760384,-3.96001,6.954198,15.45038,-0.9389313
0.8858546,-8.465898,-4.575319,12.24428,21.0916,14.30534
1.958457,-9.050082,-5.434838,-46.94656,41.17557,18.82443
0.5841852,-6.868965,-6.435614,31.32061,18.00763,20.87023
0.7589619,-6.373365,-5.707777,-31.63359,8.389313,-4.496183
4.012682,-7.173028,-5.609614,9.045801,33.24427,9.030535
1.051055,-6.818686,-4.867412,-15.76336,27.28244,-2.656489
2.082955,-8.643068,-5.106832,-14.15267,21.29008,12.20611
2.377442,-8.401254,-4.218584,-0.7251908,2.251908,4.541985
1.450886,-9.172187,-4.299986,13.80916,-0.7328244,0.7099237
3.849876,-10.00537,-7.388506,25.76336,34.1832,13.96947
1.999158,-7.04853,-6.344635,-6.633588,-11.79389,18.96947
-0.04070143,-7.824251,-6.246472,-3.343511,-3.961832,-5.541985
2.375048,-8.616732,-6.914454,19.51908,8.694656,32.29008
-0.5913678,-7.960721,-4.857835,-3.519084,0.2824428,11.08397
1.647211,-8.798691,-5.439626,-0.8931297,8.389313,-1.320611
0.7517793,-8.092402,-3.883395,-13.30534,5.21374,-2.480916
1.604115,-8.781932,-4.110844,3.648855,33.17557,8.358779
0.1891419,-9.993398,-6.830657,-38.60305,-0.4885496,20.83969
-0.3495534,-7.359776,-5.621585,2.030534,14.35114,7.801527
2.454057,-6.007052,-6.054936,1.427481,17.51908,19.80916
0.6153098,-8.468291,-6.519411,-9.21374,30.17557,-1.099237
1.417367,-7.280767,-5.272032,-18.03053,9.603053,-7.534351
1.438915,-7.967903,-4.505888,-1.274809,10.84733,-2.328244
0.9624691,-7.999028,-3.892972,2.709924,-21.65649,-1.21374
2.911349,-8.698134,-4.553771,11.35114,-4.70229,-2.687023
2.47321,-9.167398,-6.902483,4.732824,4.748092,-29.23664
-1.742979,-10.43393,-7.170634,34.69466,-42.15267,4.541985
-0.08858546,-5.820304,-5.722142,-36.41985,-31.69466,-43.73283
2.554613,-8.070854,-6.88333,19.28244,-28.58015,15.9771
0.06703765,-7.558495,-4.359841,-20.62595,-28.36641,0.5267176
1.125275,-8.056489,-4.936844,7.29771,-13.07634,-2.053435
1.309628,-8.415619,-4.479551,22.18321,10.70229,-3.992366
0.3758897,-10.4866,-4.762067,2.183206,-2.992366,-10.60305
-0.2346318,-10.79306,-8.992621,34.86259,-22.1145,12.54962
1.642422,-5.214571,-6.143522,-10.1374,26.96947,-10.33588
0.09097966,-10.03649,-8.183381,29.58015,21.8855,-14.0916
2.090138,-6.921637,-4.757279,-1.923664,6.78626,-14.9771
1.587356,-8.200141,-4.647145,1.709924,-2.328244,-4.038168
1.297657,-8.499416,-4.29041,-13.16794,-22.01527,-6.748092
2.296039,-8.829816,-5.269638,7.51145,-16.43511,-3.290076
1.357512,-9.196129,-3.13401,-29.74046,-30.83206,-15.85496
4.977545,-6.660669,-7.635109,-12.72519,18.17557,7.908397
-0.04788403,-4.146757,-3.768473,15.77863,-45.45802,-16.58015
2.726996,-9.526528,-7.936779,14.87023,-7.557252,-2.145038
-0.3830723,-7.24246,-4.311957,5.229008,-7.877862,8.679389
0.4955997,-7.996634,-5.389348,-10.62595,-12.83206,-9.496183
1.098939,-8.020576,-4.594473,-0.9847328,1.137405,-8.748092
1.398214,-10.39802,-5.317522,1.137405,10.40458,-8.847328
2.111686,-8.039729,-2.932897,-3.549618,31.34351,18.47328
-1.951274,-11.98537,-8.092402,-3.557252,-22.51145,27.61832
0.7996634,-3.488352,-5.075707,-20.70992,15.08397,-8.312977
2.487576,-9.607931,-7.867347,9.961832,4.465649,-4.625954
1.096544,-7.117962,-5.351041,0.7175572,1.366412,-27.44275
3.62961,-7.098808,-4.932055,-5.007634,20.76336,9.152672
1.63524,-7.996634,-4.5418,-5.557252,6.40458,13.54962
2.066196,-7.843405,-3.8403,-13.22137,6.29771,11.75572
1.740585,-9.624691,-4.730943,10.19084,1.053435,11.83969
1.766921,-11.40837,-4.821922,28.54962,2.78626,-17.56489
1.47004,-9.239224,-6.442797,10.99237,9.274809,8.183207
0.09816227,-6.73489,-6.0286,-15.57252,-20.48092,-1.221374
1.352724,-7.958326,-6.366182,-10.40458,-34.10687,-24.17557
1.752556,-7.872135,-5.540183,18.84733,-15.71756,15.84733
0.01436521,-8.310274,-4.644751,-4.541985,-16.12214,-7.473282
2.13084,-8.688558,-4.268862,10.96947,5.152672,-6.564886
1.290475,-8.949526,-3.976769,-3.961832,17.77099,-5.977099
2.030283,-9.375694,-5.195418,5.816794,27.85496,13.9084
-0.7924808,-10.40041,-8.722076,59.48855,-23.41985,17.32825
0.213084,-5.003881,-5.453991,-37.41985,-13.80153,-38.59542
1.18513,-8.865729,-6.921637,3.641221,-7.160306,-3.030534
2.212242,-7.632715,-5.523423,9.992367,-9.106871,-17.90076
1.642422,-7.448361,-5.051765,-6.778626,2.938931,-0.02290076
1.929727,-8.394072,-5.102044,-8.893129,-5.114504,-0.2519084
2.013524,-8.492233,-4.896142,-2.091603,1.725191,3.419847
1.477222,-8.726865,-3.895366,8.458015,-5.931298,9.015267
0.9121908,-10.46266,-3.485958,-14.9542,-25.18321,-21.62595
2.176329,-8.178593,-5.44202,11.9542,10.39695,-9.473283
0.4740519,-7.007828,-5.061342,1.358779,-31.47328,-5.633588
0.9169792,-7.426814,-5.916072,-0.2137404,-27.01527,-17.0916
1.900996,-8.700529,-6.603208,12.1374,-17.61832,14.71756
1.436521,-7.793127,-4.216189,-11.49618,-10.78626,1.427481
1.122881,-8.324639,-4.201824,2.351145,10.23664,2.519084
1.781286,-8.971074,-4.192247,-8.38168,13.62595,0.9847328
0.9768343,-9.203311,-2.817975,2.770992,30.06107,24.68702
0.9361328,-10.36211,-12.65814,90.38168,34.20611,2.740458
1.551443,-5.588067,-4.34787,-55.82443,7.076336,-24.69466
2.355895,-7.860164,-6.995857,40.10687,44.26717,3.21374
0.5075707,-9.720459,-5.070919,11.92366,10.20611,-21.49618
2.13084,-7.606379,-3.981557,-4.908397,-2.068702,-23.69466
2.930503,-8.046912,-3.787627,2.022901,-9.992367,-0.07633588
2.255338,-8.956709,-3.983952,-16.81679,3.587786,8.312977
2.20506,-7.838616,-3.900155,-35.54198,-8.687023,12.75572
-0.03591302,-10.00058,-4.927267,-0.6259542,-57.70992,-9.801527
3.998317,-9.414001,-8.003817,42.29771,7.183206,-47.85496
1.338359,-9.248801,-7.661446,19.80153,-71.80153,-3.450382
-1.120486,-6.545747,-5.693412,-0.8473283,-52.77863,-31.0458
0.3711013,-8.343793,-7.271191,28.19847,-44.08397,-5.877862
0.6512229,-7.601591,-5.240908,-5.374046,-29.48092,-14.21374
0.9504981,-8.121132,-5.815516,6.778626,-24.75573,-15.03817
1.352724,-8.281544,-4.048595,-2.412214,-1.083969,-2.580153
1.546654,-8.908825,-4.525041,9.473283,29.25954,12.0687
0.6560113,-11.03248,-8.829816,21.51145,-62.0229,-2.274809
0.2920926,-3.433285,-4.486734,-29.15267,23.33588,11.98473
2.097321,-10.00297,-7.364564,20.54962,18.49618,-28.16031
1.221043,-7.012617,-5.161899,-10.0916,17.61832,-16.36641
2.717419,-7.61835,-4.757279,9.358779,8.282443,-5.977099
3.694253,-7.582437,-5.190629,-12.48092,16.45802,9.641221
1.984793,-8.025364,-4.5418,-5.755725,5.236641,10.48855
1.70946,-8.389283,-4.326323,-5.48855,-16.18321,15.83969
3.622427,-7.747637,-4.996699,-22.9313,-12.9542,8.832061
0.2346318,-7.297527,-9.131485,-47.44275,-36.29771,7.061069
-1.431733,-11.30542,-4.805163,5.717557,-55.87023,-19.69466
1.371878,-5.83467,-6.138733,-29.10687,-50.16794,-33.38168
-0.4309563,-6.375759,-6.10282,27.38168,-38.42748,-19.23664
1.73819,-8.195353,-6.785168,18.22901,-18.52672,-5.70229
0.5363012,-7.457938,-5.480328,5.946565,-18.74809,-13.98473
0.9337386,-8.078036,-5.901707,7.80916,-14.36641,-1.648855
0.6368576,-7.994239,-5.11162,-0.2442748,-11.45802,-10.73282
0.617704,-8.497022,-4.357447,-1.015267,-7.877862,-18.87023
0.7038953,-9.356541,-5.185841,7.183206,-13.54962,-31.03817
1.661576,-8.647857,-3.790021,3.763359,2.954198,-7.770992
-0.9624691,-11.36288,-6.749255,2.946565,-21.38931,-2.358779
-0.01675941,-7.64708,-6.189012,29.9084,-7.129771,-10.8855
2.827552,-6.469133,-6.363788,2.328244,-9.511451,-7.870229
0.4213795,-8.781932,-6.543353,13.03817,-8.511451,-15.60305
1.666364,-7.414843,-4.932055,11.31298,-17.35878,-20.45802
1.61848,-7.637504,-4.8722,-5.580153,-16.78626,-19.35114
1.908179,-9.038112,-5.214571,3.541985,-22.56489,-20.29008
2.202666,-7.984663,-4.086902,-3.740458,-26.98473,-15.29008
2.013524,-8.425196,-4.414908,-2.21374,-31.8855,-11.61069
1.781286,-9.224859,-4.161122,-2.687023,-39.07634,-19.72519
2.545036,-8.475474,-6.830657,29.80916,-8.40458,-28.47328
1.371878,-7.876924,-6.186617,11.28244,-68.30534,-30.96183
0.5171475,-7.12275,-5.118803,19.19847,-54.38931,-39.56488
0.9816227,-8.532935,-5.628768,18.81679,-33.62595,19.37405
0.5482722,-8.240842,-5.181053,-13.62595,-41.76336,-19.85496
0.7254431,-8.432379,-4.307169,5.687023,-26.57252,-20.8855
1.426944,-8.195353,-4.086902,-0.7099237,-8.450381,-31.0916
1.795651,-9.466674,-4.805163,9.251908,-4.091603,-1.381679
-1.745373,-10.77151,-6.703765,4.496183,-53.68702,-13.36641
1.010353,-6.543353,-5.688623,13.49618,-33.33588,-29.30534
1.721431,-7.357382,-6.864176,18.74809,-47.16794,-25.76336
0.3615245,-7.752425,-6.105214,-5.122138,-36.91603,-43.0687
3.70383,-7.410054,-5.851429,9.145039,-34.64885,-38.84733
1.594538,-8.51857,-4.762067,6.030534,-12.69466,-10.62595
1.33357,-8.224083,-4.165911,3.923664,-24.61832,-4.900764
1.414973,-8.37013,-4.151546,2.290076,-24.29771,0.5954198
0.9552865,-9.548077,-4.673482,16.25954,-31.71756,-15.33588
4.469975,-7.682993,-7.261614,5.541985,12.41221,-3.885496
1.980005,-6.476315,-4.836287,20.80916,-12.50382,0.1679389
0.8164227,-7.745243,-7.522582,10.43511,0.7633588,-19.84733
2.861071,-7.747637,-6.282385,-16.67939,-22.96947,8.641221
-0.308852,-7.661446,-4.644751,-0.1221374,-14.63359,13.74046
1.877054,-8.554482,-5.465962,-1.717557,-9.007633,-2.732824
1.323994,-8.169016,-4.211401,-11.41221,3.038168,-3.450382
0.8331822,-8.789114,-4.718972,2.145038,6.992366,-5.0
1.776498,-8.401254,-4.498705,-3.59542,28.35114,8.351145
0.8762778,-9.445126,-7.410054,-30.66412,5.122138,23.53435
1.024718,-8.044518,-5.717354,18.0687,2.687023,-10.93893
0.5434838,-7.058106,-5.628768,-8.755725,-14.78626,-5.564886
1.759738,-7.582437,-5.394136,13.31298,-10.43511,-8.236641
1.810017,-7.273585,-4.156334,-5.122138,-15.32824,-20.96183
1.335965,-8.599973,-4.821922,-0.3206107,-16.42748,-8.564885
1.180341,-7.984663,-3.557784,-2.091603,-20.16794,-6.801527
2.102109,-8.497022,-5.319916,-1.015267,-7.847328,3.175573
1.233014,-9.672575,-4.146757,1.145038,-20.58015,-11.81679
4.082114,-6.449979,-6.617573,-25.44275,24.91603,23.12977
0.7685388,-6.397307,-5.609614,10.09924,0.3358779,12.96947
1.582567,-8.123527,-7.28795,0.6946565,3.534351,7.694656
1.256956,-7.503428,-5.125986,-3.267176,13.9313,23.38931
1.187524,-7.891289,-5.808333,-2.167939,29.25954,21.08397
1.156399,-8.154651,-5.042189,-2.916031,37.06107,22.35114
1.235408,-8.444349,-4.07972,-0.8625955,35.43512,12.79389
1.886631,-8.748413,-4.256891,-8.671756,36.1145,15.21374
1.343147,-9.229648,-3.792415,8.862596,30.77099,14.09924
0.2035071,-10.40041,-11.13783,40.9542,-15.67176,21.25954
0.4405331,-6.540959,-5.6982,-44.84733,13.32061,-12.08397
1.649605,-7.544129,-5.015852,34.74809,-1.748092,-21.23664
1.501164,-7.951144,-4.955997,5.152672,-9.412213,-12.47328
1.771709,-8.3821,-4.84347,-7.648855,-9.0,-5.198473
1.944092,-8.468291,-3.936068,-8.992367,-2.679389,-0.4580153
1.867477,-8.599973,-4.24492,-2.129771,11.05344,15.14504
1.132457,-8.78672,-3.462016,-4.526718,-7.59542,1.717557
4.944026,-7.570466,-9.038112,-2.641221,45.64122,3.641221
0.7685388,-7.170634,-4.469975,-4.572519,-20.74046,-17.24427
0.1723825,-8.386889,-6.428432,-0.7251908,-14.96183,-30.41985
2.432509,-7.879318,-5.540183,21.85496,-5.175572,39.28244
0.6560113,-7.656657,-4.733337,-17.19847,-0.03053435,2.129771
0.9624691,-8.310274,-4.965574,13.05344,-1.916031,12.15267
1.278504,-8.429984,-4.599261,-3.48855,2.679389,2.748092
1.651999,-8.312668,-3.912126,-4.045802,14.32061,5.221374
1.541866,-8.76996,-3.639187,-30.76336,32.78626,22.85496
0.05027823,-10.7787,-9.002198,45.19084,-17.83206,0.3816794
0.4141969,-6.246472,-5.968745,-3.89313,15.38168,-14.12214
0.7445967,-8.803479,-7.745243,14.51908,-6.030534,-8.091603
1.750161,-7.129933,-5.061342,9.931297,-12.05344,-21.36641
2.257732,-7.697359,-4.903325,-16.01527,-4.870229,-20.38168
1.608904,-8.446744,-4.850653,1.519084,-14.23664,-2.473282
2.568978,-7.996634,-4.728549,-5.503817,-6.229008,8.198473
1.108515,-9.107543,-5.121197,3.519084,-10.19084,6.648855
2.70066,-9.617508,-6.584054,-4.099236,-10.14504,-15.54962
0.3471592,-10.06522,-6.509834,5.816794,-8.847328,-9.374045
0.1077391,-4.805163,-5.796362,-28.9542,-30.62595,-26.12977
3.971981,-8.499416,-7.455544,9.641221,-7.648855,10.50382
-0.2466028,-5.942409,-4.168305,3.59542,-10.31298,5.221374
2.080561,-8.552089,-5.585672,6.61832,-10.19084,-8.480916
1.833959,-8.346188,-4.007894,14.75572,8.610687,-1.51145
1.616086,-9.380483,-4.414908,-2.267176,8.122137,1.206107
0.9576807,-9.969456,-6.426037,-35.03817,-10.60305,21.29008
1.546654,-5.422867,-4.311957,-34.80153,28.31298,-7.167939
2.262521,-5.729325,-5.588067,-12.12977,12.38931,8.519084
1.35033,-9.342175,-7.012617,26.69466,20.58015,-12.0687
1.867477,-6.725313,-4.699818,-28.14504,7.259542,-10.0687
2.099715,-8.145074,-4.953603,-1.732824,8.961832,5.389313
1.098939,-8.743625,-3.837905,0.2900764,-5.40458,1.938931
1.762132,-9.062054,-4.129998,22.09924,6.954198,16.16794
3.055001,-10.3238,-5.602432,8.78626,26.18321,-24.29771
2.142811,-8.978256,-7.513005,14.12977,-12.94656,-6.984733
-0.2178724,-7.352593,-5.619191,-15.99237,-19.89313,-23.72519
2.832341,-7.505822,-6.497863,31.1145,-19.30534,31.17557
0.4644751,-7.184999,-4.266468,-21.67175,-21.27481,-4.969466
1.745373,-8.446744,-4.63278,7.442748,-0.03053435,1.564886
0.5770026,-8.14268,-3.713407,-1.961832,-4.793893,-3.793893
2.32477,-9.844957,-5.406107,0.4503817,15.37405,1.40458
1.910573,-9.32781,-5.633556,-25.9771,9.938931,17.16794
0.04309563,-8.305486,-7.999028,11.71756,7.763359,-7.89313
3.057395,-5.633556,-6.299145,-20.20611,-4.435114,2.534351
0.5674258,-8.813056,-6.698977,26.87786,6.755725,-11.30534
2.30801,-6.974309,-4.671088,-14.9542,-1.916031,-18.67175
1.723825,-7.831434,-5.334281,-12.20611,-7.427481,-4.435114
2.066196,-8.62152,-4.81474,0.1679389,-5.687023,4.900764
1.596933,-8.858546,-4.762067,4.442748,-5.496183,10.0
0.7158663,-8.698134,-3.763685,14.67939,-37.43512,-14.9771
3.371036,-6.79235,-7.862558,6.480916,10.34351,2.70229
0.7852982,-6.50744,-5.130774,5.587786,-35.12214,6.564886
0.5770026,-7.539341,-7.381324,-6.78626,-8.183207,1.053435
0.2705448,-7.704541,-6.246472,16.80153,-26.19084,6.961832
1.084573,-7.972692,-5.770026,-11.01527,-14.49618,-13.69466
1.551443,-8.48984,-5.41329,10.60305,7.687023,0.2977099
0.9528923,-8.645462,-4.29041,4.251908,15.32824,-2.534351
1.130063,-8.865729,-4.333505,1.022901,30.12214,4.152672
1.09415,-9.385271,-5.137957,-49.44275,59.26717,21.20611
-1.625663,-9.708488,-6.895301,34.08397,-10.30534,-9.251908
2.784456,-6.246472,-5.734113,-7.396946,13.00763,-0.778626
-0.5506664,-9.574412,-6.533776,16.40458,1.961832,-26.12977
2.975993,-7.302315,-5.046977,-1.641221,-4.045802,-7.839694
1.192312,-7.852982,-3.971981,-7.549618,6.442748,4.969466
0.7398083,-9.61272,-4.082114,2.114504,-25.19084,-12.9771
2.86586,-8.925584,-2.964022,10.20611,-10.22137,4.030534
4.125209,-7.601591,-8.717288,1.870229,27.96183,-23.0458
0.7445967,-7.371747,-6.186617,24.83206,-20.57252,3.183206
1.821988,-8.396465,-6.126762,-11.99237,-10.50382,-21.90076
0.4453215,-8.987833,-6.356606,42.12214,-23.12214,10.0
1.764527,-7.781156,-4.39336,-34.46565,-12.84733,-11.9542
1.788469,-8.228871,-4.757279,-0.9923664,9.335877,4.335878
0.3950433,-8.762778,-4.690241,-0.5648855,1.916031,-1.671756
1.326388,-9.076419,-4.180276,4.900764,15.08397,2.19084
0.7493851,-10.85052,-6.92882,-3.89313,-11.60305,23.9313
1.831564,-5.813122,-6.974309,17.66412,23.9313,5.427481
1.731008,-8.453926,-6.095637,-12.45038,-3.10687,-10.83969
2.195483,-6.926425,-4.716578,14.35114,-4.015267,-15.41221
2.456451,-7.390901,-5.051765,-11.45802,-9.900764,-16.92366
1.831564,-8.475474,-4.750096,-0.9541985,-4.664122,-8.160305
2.616863,-8.159439,-4.390966,-5.78626,0.2137404,5.038168
2.032677,-8.341399,-4.29041,-3.916031,1.19084,12.18321
1.273715,-8.090008,-3.878607,-18.74046,-17.35878,0.648855
3.620033,-9.081207,-7.860164,-31.53435,0.8625955,-22.19847
0.6919243,-8.597578,-6.0286,-3.091603,-0.7709923,-12.82443
1.819593,-6.983886,-7.038953,9.931297,-25.59542,-14.83969
3.011906,-8.073248,-6.854599,12.03817,-7.946565,10.58015
1.043872,-6.871359,-5.26485,0.4503817,-7.885496,13.69466
1.295263,-8.200141,-5.774815,5.08397,-2.21374,8.473283
1.228225,-8.109161,-4.386178,1.70229,4.839694,7.10687
1.237802,-8.439561,-4.498705,-6.793893,17.25954,1.160305
1.177947,-8.717288,-4.072537,-7.572519,15.30534,-4.679389
1.479617,-9.220071,-5.525817,-19.35878,6.419847,16.84733
0.4046201,-8.916007,-7.043741,19.45038,-0.7709923,-6.770992
1.537078,-5.509058,-5.774815,-4.969466,-14.52672,-17.19847
1.673547,-9.639056,-6.871359,16.58779,0.480916,-14.66412
1.486799,-7.398083,-4.735731,12.39695,-10.51145,-24.14504
2.403779,-7.754819,-4.972757,-10.87786,-1.145038,-9.244275
1.991976,-8.41083,-4.589684,-4.343512,-13.79389,-10.83969
2.466028,-7.960721,-4.256891,-10.67176,-10.45802,-2.251908
2.193089,-8.657434,-4.144363,4.51145,-12.9771,8.847328
2.375048,-9.172187,-5.671864,-19.79389,-14.61832,-19.05343
-0.6943185,-9.380483,-5.856217,18.30534,-10.77863,5.305344
1.781286,-6.505046,-5.430049,-4.290076,-33.08397,-8.503817
1.836353,-7.680599,-6.189012,6.908397,-27.0687,-18.72519
1.697489,-7.484274,-5.695806,14.16794,-24.51145,17.9313
0.2082956,-7.908048,-4.721366,-12.19847,-30.32825,-1.70229
1.692701,-7.762002,-4.726154,-7.320611,-5.870229,-0.129771
1.216254,-8.961497,-5.566519,-0.1145038,9.656488,0.2061069
1.398214,-9.174581,-7.951144,-39.29771,-14.98473,20.61069
-0.08379706,-6.756437,-5.453991,-21.35878,37.35878,7.21374
1.824382,-7.012617,-6.782773,12.43511,15.31298,12.29008
0.8140285,-8.255207,-6.256049,1.206107,12.0229,-6.648855
1.70946,-6.938396,-5.070919,0.480916,3.183206,-13.64122
2.365471,-8.394072,-5.612009,-11.19847,8.496183,-3.625954
1.493982,-7.623138,-4.031836,-11.58015,-2.89313,-0.6183206
2.346318,-8.355764,-5.176264,-1.206107,-2.290076,9.206107
1.307234,-9.052477,-4.340688,13.75572,-15.32061,-4.29771
3.833117,-10.15381,-6.351817,1.748092,-5.633588,-26.75573
-0.5985504,-9.030929,-7.398083,34.73283,-17.64886,-8.931297
1.209072,-7.352593,-6.476315,-11.58015,-10.40458,-37.13741
1.80044,-9.062054,-6.569689,39.26717,-7.21374,17.58015
1.041478,-6.842628,-4.776433,-9.885496,-1.099237,8.145039
0.8283938,-8.89446,-5.626374,7.145038,-7.053435,9.778625
1.39582,-7.848193,-4.369418,-7.900764,5.641222,8.442748
1.216254,-8.26239,-4.027047,-6.610687,9.389313,-5.587786
0.2753332,-8.820239,-4.802769,-3.755725,-5.053435,-9.687023
2.983175,-10.47463,-5.080496,-19.29008,2.137405,5.763359
0.3734955,-9.138668,-7.19697,6.732824,-4.007634,-6.038168
0.9121908,-5.473145,-5.571307,-23.03053,-1.022901,-13.52672
0.5291186,-7.920019,-6.01184,29.25191,-17.48855,-12.73282
2.557007,-7.438785,-5.157111,7.648855,-19.81679,-22.77099
1.484405,-8.063671,-4.295198,5.351145,-32.55725,-14.37405
2.664747,-8.705317,-4.726154,-5.091603,-16.51145,-4.877862
0.9552865,-9.301474,-3.411737,9.389313,-11.32061,-0.4351145
1.872266,-7.582437,-7.438785,-5.145038,-31.32825,-16.68702
0.4860229,-8.303091,-6.253655,71.55725,-25.46565,27.8855
0.4118027,-7.340622,-7.350199,-48.82443,-26.58015,-73.85497
2.291251,-8.145074,-5.741296,34.01527,-17.27481,12.54198
0.3711013,-7.206547,-4.249708,-22.83969,-20.03817,-6.007634
1.237802,-8.681376,-5.583278,3.045802,-7.282443,1.091603
2.214637,-8.358158,-4.216189,7.458015,8.312977,5.89313
1.182736,-9.718064,-5.24809,-5.343512,4.977099,-10.54198
0.3926491,-10.34535,-5.762844,-1.717557,-27.0687,21.45038
2.252944,-5.8634,-6.234501,5.236641,20.82443,-0.3664122
1.723825,-8.283937,-6.988675,-2.992366,-5.900764,-11.8626
1.364695,-6.756437,-4.584896,6.854962,-6.030534,-14.32824
2.530671,-7.369353,-4.869806,-5.206107,-13.66412,-12.31298
1.778892,-7.577648,-4.704607,-9.358779,-19.22137,-14.10687
2.39899,-8.171411,-4.905719,-12.48855,-10.99237,-0.3969466
1.508347,-8.930372,-4.55856,1.89313,-12.9542,0.4274809
1.596933,-8.683769,-3.605668,-9.442748,-25.0229,-6.328244
3.641581,-7.876924,-8.176199,-7.335878,22.72519,-0.8473283
0.6488287,-5.942409,-4.548983,-12.33588,-25.56489,-18.01527
1.862689,-7.776367,-6.955156,8.0,-7.801527,-1.183206
0.6272808,-7.302315,-5.209783,2.427481,-19.06107,13.73282
1.563414,-7.706935,-5.26485,-8.030535,-3.259542,7.068702
1.321599,-7.888895,-4.48434,-0.8854962,-4.496183,-2.312977
1.537078,-8.798691,-5.137957,12.03053,2.748092,-3.832061
1.077391,-9.579201,-4.582502,12.94656,-3.923664,-4.877862
1.007959,-9.78989,-7.982268,-17.54198,-34.48855,28.34351
2.808398,-2.987964,-5.176264,-44.67939,30.98473,7.015267
1.027112,-8.046912,-6.842628,8.526717,-5.29771,-2.580153
1.80044,-6.528988,-5.030218,3.549618,0.9007633,-11.21374
2.044648,-8.453926,-4.936844,-8.145039,-13.96183,-13.63359
1.381454,-7.465121,-3.883395,-13.31298,-22.24427,-7.167939
2.935291,-8.913613,-5.260061,24.82443,0.3129771,6.007634
1.616086,-9.064447,-6.670246,-9.473283,-5.396946,-37.53435
-0.7565677,-10.00058,-5.554548,11.42748,-32.32061,14.08397
1.244985,-5.049371,-5.437232,-9.977099,-21.67939,-3.312977
2.434903,-7.951144,-7.065289,10.49618,-14.25954,3.763359
0.004788403,-7.335834,-4.651934,-6.709924,-21.93893,3.152672
1.106121,-8.343793,-5.317522,-3.374046,-15.37405,-4.778626
1.745373,-8.087613,-4.321534,-5.946565,0.8244275,-10.27481
2.044648,-8.75799,-5.224148,-4.51145,8.885496,-5.740458
2.861071,-9.069236,-3.876213,-25.42748,44.09924,20.70992
-1.900996,-10.68532,-10.67096,85.09161,-35.62595,-0.4503817
0.9744401,-5.552154,-5.015852,-36.14504,9.366412,3.145038
1.762132,-8.41083,-7.398083,18.25954,19.52672,-8.122137
1.326388,-7.256825,-4.673482,-17.08397,20.18321,-3.10687
1.572991,-7.881712,-4.41012,0.7099237,1.89313,8.175572
0.7613561,-9.260772,-5.437232,1.564886,-22.20611,-11.45038
1.458069,-8.607155,-2.8491,31.87023,-37.77863,-3.801527
3.974375,-5.762844,-5.166687,0.2824428,-17.05343,17.17557
0.8834604,-5.090073,-6.263232,-2.641221,-44.51908,-49.16794
0.9744401,-8.26239,-6.914454,26.25954,-45.1832,-12.47328
0.7972692,-7.216124,-5.0374,-2.076336,-37.32061,-5.80916
0.9457096,-8.164227,-5.121197,3.282443,-20.75573,0.832061
1.735796,-8.537724,-4.381389,5.358778,0.5267176,-4.08397
-0.4501099,-9.325416,-3.780444,8.931297,-1.641221,3.320611
-0.1867477,-11.73159,-6.406884,4.61832,-25.19847,18.35114
2.494758,-4.716578,-7.788338,1.70229,32.10687,-1.259542
0.3232172,-8.607155,-6.971915,-12.44275,0.8015267,-14.87786
1.391031,-7.125144,-4.726154,2.977099,-10.41985,-20.35114
2.772485,-6.852205,-5.020641,-6.763359,-4.687023,-11.23664
1.625663,-8.705317,-5.164293,-9.793893,-17.45038,-4.145038
2.561796,-7.460332,-3.687071,-1.564886,-14.06107,2.51145
3.117251,-8.152257,-7.601591,-30.54198,-1.21374,-16.61069
-1.697489,-10.35253,-5.470751,3.89313,-28.18321,-2.282443
0.225055,-5.238513,-5.465962,-13.66412,-24.71756,-20.80916
1.702277,-8.295909,-7.055712,16.21374,-31.37405,11.28244
-0.7445967,-6.708553,-3.672705,-18.09924,-42.74046,-17.72519
1.587356,-8.731653,-5.525817,16.43511,-27.13741,-13.0458
1.551443,-7.592013,-4.000711,2.908397,-20.20611,-14.03817
1.805228,-9.847352,-5.734113,4.045802,-1.832061,-6.992366
0.09576806,-9.64145,-5.679047,-57.17557,-26.33588,16.25954
0.1053449,-5.700594,-5.233725,9.244275,14.53435,-13.07634
1.441309,-6.991069,-6.241684,-14.57252,-3.305344,-10.20611
1.113304,-6.940791,-5.590461,20.03053,-6.709924,-15.57252
1.980005,-8.252813,-5.046977,-15.72519,-11.69466,-27.0229
1.364695,-8.365341,-3.517082,10.0458,-26.98473,-9.458015
2.229002,-8.738836,-5.08289,10.83206,-19.50382,-3.877863
1.319205,-8.779537,-3.078943,0.259542,-40.67939,-21.17557
2.319981,-8.623915,-5.650316,14.29771,-8.473283,8.534351
0.56982,-4.857835,-4.474763,-24.37405,-31.01527,-34.65649
0.7374141,-8.288726,-7.33344,26.60305,-30.44275,17.26718
1.587356,-6.493075,-4.122815,-9.557252,-24.19847,5.480916
1.225831,-8.422802,-5.025429,-12.93893,-1.740458,3.954198
1.58975,-7.302315,-3.825934,-29.00763,11.62595,-6.473282
2.116474,-9.390059,-5.480328,-4.748092,12.93893,-4.450382
2.281674,-8.944737,-3.940856,24.69466,52.41985,8.198473
-0.9241618,-9.718064,-11.1474,52.46565,-18.67175,-21.0229
-2.983175,-11.77468,-6.145916,-3.175573,-11.31298,-53.20611
2.877831,-6.713342,-5.568913,-16.22901,-19.19847,-31.05343
0.7062895,-7.879318,-5.080496,8.152672,-26.29771,-15.87786
2.394202,-7.958326,-5.911284,20.94657,-26.32061,-20.89313
2.300828,-7.817069,-5.453991,12.45038,-27.76336,-18.0
1.233014,-8.099585,-4.714183,7.007634,-40.00763,-8.793893
1.568202,-9.469068,-5.44202,-5.931298,-51.49618,-24.51145
1.204283,-8.815451,-6.203377,36.64885,-36.94656,0.2061069
2.284068,-5.77242,-6.019023,-36.15267,-36.82443,-64.45038
-0.07422025,-8.523358,-7.352593,59.94656,-50.48092,-1.40458
1.165976,-7.469909,-5.430049,-2.961832,-37.00763,-16.66412
1.146823,-7.735666,-4.920084,4.610687,-13.14504,-12.05344
1.786075,-8.604761,-4.819528,10.94656,10.54962,2.717557
1.369483,-9.76116,-4.592079,-10.38168,13.96183,9.603053
0.4357447,-10.46027,-11.67892,86.51145,11.93893,4.259542
-0.2035071,-6.991069,-4.903325,-41.64885,-2.328244,-25.79389
2.413355,-6.938396,-6.318298,33.35115,8.412213,0.04580153
1.575385,-7.927202,-5.746084,-5.839694,-10.48092,-33.51145
2.319981,-7.735666,-4.886566,-13.29008,-9.40458,-15.22901
1.951274,-8.200141,-4.204218,10.36641,-3.351145,4.160306
1.460463,-8.461109,-4.314352,-4.022901,-16.16794,-2.167939
2.925714,-11.25275,-5.707777,24.86259,13.25191,-11.08397
0.2825158,-9.624691,-5.928043,16.72519,-3.839695,1.839695
1.347936,-6.251261,-6.366182,-19.31298,-18.84733,-16.0
1.82917,-8.391677,-6.687006,13.32824,-27.35114,0.9847328
0.4788404,-6.76362,-4.458004,1.083969,-24.45802,-0.5801527
1.549049,-8.50181,-4.893748,2.358779,-13.55725,-8.297709
1.601721,-8.710106,-3.787627,2.48855,-3.725191,3.717557
