ax,ay,az,gx,gy,gz
-2.420538,-8.228871,-2.008735,-72.1832,-9.916031,-9.068703
-0.5027823,-10.22085,-3.646369,38.82443,16.25191,-1.938931
-1.651999,-8.693346,-1.716643,-27.0687,19.67939,-6.007634
-1.266533,-11.3964,-2.952051,20.51145,27.31298,-8.198473
-2.262521,-9.028535,-3.028665,-16.06107,5.320611,14.41985
-0.5243302,-10.37408,-5.770026,8.076336,31.36641,-24.48092
0.7541735,-6.584054,-2.822764,31.18321,30.63359,4.862596
0.1651999,-12.29901,-5.911284,-23.22901,7.80916,-37.03053
2.090138,-6.854599,-1.723825,51.96183,23.52672,-1.51145
-0.1197101,-9.900024,-2.240973,-42.73283,6.022901,-8.916031
1.613692,-9.299079,-2.47321,14.96183,13.16031,1.229008
0.9840169,-9.318233,-1.810017,-5.80916,14.1145,7.900764
1.18513,-9.200917,-1.158794,-6.038168,6.08397,18.64886
-0.05746084,-9.315839,-1.242591,-38.73283,7.412214,19.0916
0.8283938,-11.60948,-6.34224,-42.62595,-21.23664,0.6564885
-0.4788404,-7.726089,-4.13718,21.16031,-12.33588,17.12214
0.9576807,-10.1562,-4.855441,-9.183207,29.55725,21.92366
-1.807622,-9.074024,-4.553771,63.78626,37.41985,27.29008
-1.264138,-7.268796,-1.817199,-48.08397,-1.923664,17.27481
-2.813187,-10.3214,-3.32794,9.221375,-11.61069,-8.862596
-1.06542,-8.525752,-2.521094,-3.374046,-8.954199,-6.08397
-1.381454,-9.725247,-2.003947,-3.824427,1.664122,-19.71756
-2.331953,-10.8194,-2.051831,-4.251908,10.0229,-15.26718
-1.596933,-10.85771,-5.171476,28.57252,-0.6946565,14.89313
-1.240196,-7.062895,-4.539406,39.99237,6.244275,-5.740458
0.03591302,-9.093178,-2.911349,-53.10687,-42.8855,-18.87786
-0.1987187,-10.18972,-4.405331,78.32061,-36.51908,-19.43511
0.5554548,-6.924031,-0.9552865,-45.89313,-25.48855,-3.328244
-1.072602,-10.67096,-3.165135,19.51908,-40.35878,7.267176
-0.4022259,-9.459491,-1.984793,-16.79389,-31.96947,12.06107
-1.520318,-11.24557,-1.75495,3.389313,-66.77863,-9.427481
-0.5099649,-10.12268,-5.544971,3.061069,-28.64122,0.9312977
-3.117251,-5.29358,-1.508347,2.167939,-65.05344,-16.16031
-0.2082956,-13.35725,-4.742914,-58.13741,-36.03053,-22.78626
-3.217807,-6.531382,-1.278504,46.20611,-40.12977,10.80153
-1.61848,-9.785102,-2.841918,-76.93893,-33.9542,-35.03053
-0.9217676,-9.91439,-3.363853,32.31298,-0.961832,-11.0
-0.9457096,-10.74039,-2.525883,-34.44275,-6.305344,-25.34351
-3.325546,-11.65737,-6.538565,56.38168,-38.09924,-24.0916
1.242591,-2.904167,-1.106121,6.923664,-16.61069,-7.396946
-1.122881,-14.67885,-7.37893,-38.09924,-43.01527,-18.03053
0.8810662,-5.612009,-0.6775591,70.0229,-56.51908,-6.053435
-0.2992752,-10.37168,-2.822764,-91.64122,-22.54198,-11.39695
-1.122881,-9.600749,-1.853112,46.8855,-50.26717,3.129771
0.02633622,-9.509769,-1.951274,-48.0687,-33.84733,-1.038168
0.2082956,-12.15057,-5.736507,21.19847,23.07634,20.75573
-2.075773,-6.713342,-2.810793,4.045802,-64.51908,8.290076
-6.418855,-13.43626,-6.131551,9.671756,-40.0458,-40.35878
1.288081,-11.30781,-5.298368,1.305344,-31.54962,-2.0
-3.598485,-6.540959,-1.496376,36.42748,-5.374046,15.47328
-2.310405,-9.224859,-3.440468,-55.10687,-35.1145,-27.61832
-0.04548983,-9.504981,-2.794033,16.45802,8.908397,-4.625954
-2.104503,-9.483433,-2.688689,6.89313,42.34351,-8.641221
-0.5770026,-12.0979,-3.354277,-8.80916,4.80916,4.847328
-2.209848,-9.136273,-5.868188,0.5877862,15.22137,-7.38168
0.7493851,-5.724536,-1.690306,7.122138,-12.39695,-1.923664
-2.382231,-13.33331,-6.244078,0.6412213,-26.08397,-30.71756
1.898602,-5.923255,-0.6392518,48.40458,-25.0229,-3.862595
-1.000776,-10.78827,-2.339135,-49.32061,-25.24427,-9.419847
-0.4477157,-9.002198,-1.448492,33.91603,-39.74809,4.824428
-0.03112462,-10.16578,-1.292869,-25.77863,-24.27481,2.251908
-0.5027823,-11.066,-2.841918,-8.175572,-5.862596,15.28244
0.2226608,-8.585608,-4.534618,9.885496,24.78626,5.29771
0.3232172,-8.698134,-3.442862,-20.74809,35.41221,-6.175572
-1.247379,-9.758766,-5.473145,68.82442,11.0,46.05344
-2.801216,-6.430826,0.4118027,-55.34351,2.396947,-20.42748
-0.308852,-10.78109,-4.544195,31.87023,22.63359,7.435114
-1.525106,-9.701305,-1.403002,-19.69466,27.42748,0.06870229
1.587356,-11.08515,-4.649539,12.15267,24.20611,9.992367
-1.120486,-6.035782,-5.552154,21.77099,75.61832,24.76336
-2.348712,-9.811439,-0.08379706,-63.57252,-24.38168,-18.07634
1.084573,-11.17374,-6.306327,84.68702,1.175573,-19.83969
-0.4429273,-5.039794,0.3782839,-68.30534,-20.12214,-6.19084
-1.714248,-12.02129,-4.156334,15.70992,-42.06107,0.2061069
0.1005565,-9.940725,-1.422156,-5.167939,-29.35114,7.351145
-1.072602,-10.9008,-7.448361,-27.06107,-31.74046,-5.793893
-2.202666,-7.496245,-1.273715,92.84733,-90.07633,-16.72519
0.5889736,-10.84813,-2.657564,-129.687,-30.9771,-20.12214
-3.450045,-8.434772,-3.303998,100.916,-14.67176,6.709924
-0.4165911,-8.123527,-1.388637,-86.58778,-27.93893,-33.91603
-1.00317,-11.2312,-4.201824,36.83206,30.44275,-0.2824428
-0.7182605,-13.16572,-6.423643,1.129771,-17.82443,-4.969466
-0.1005565,-3.672705,-4.115633,64.49619,79.61832,24.38168
-3.22499,-11.60948,-1.278504,-119.313,-89.56489,-32.9084
1.01993,-9.617508,-2.959233,132.1985,4.572519,7.862596
-0.3591303,-6.157887,0.2322376,-81.67175,1.335878,-0.7099237
-1.704672,-11.92073,-3.241749,33.33588,-10.37405,6.061069
-1.821988,-10.32619,-0.1891419,-0.8854962,-42.0458,12.51145
0.4812346,-10.817,-5.480328,-47.54962,20.71756,0.5038168
-1.798046,-6.610391,-2.298434,50.32061,-61.53435,-10.45802
-0.2801216,-11.58315,-3.517082,-81.72519,11.84733,-23.75573
-2.32477,-8.595184,-3.28245,81.92367,-6.38168,17.25954
0.06703765,-7.864953,-1.477222,-72.30534,0.06870229,-23.25954
-1.244985,-10.817,-3.615245,20.65649,23.55725,-1.335878
0.06943185,-12.75391,-3.617639,-9.679389,0.8091603,-14.58779
-0.1795651,-7.10599,-5.810728,14.36641,65.0229,26.51908
-3.490746,-9.330204,0.8762778,-24.74046,-54.35878,-22.98473
1.788469,-11.98059,-8.588001,65.30534,19.70992,-15.55725
2.475605,-4.620809,0.8403648,0.3740458,32.72519,-9.534351
-1.958457,-11.31979,-3.016694,-46.1145,0.740458,-0.519084
0.5674258,-8.779537,-1.699883,11.58015,-3.748092,19.44275
-0.7661445,-9.313444,-1.838747,-42.51145,-9.167939,11.61832
-0.4285621,-10.74039,-2.975993,8.038168,-28.47328,14.33588
0.4884171,-9.995792,-4.51307,-36.46565,8.496183,19.93893
-1.429338,-8.401254,-4.556166,50.65649,-10.20611,1.366412
2.942474,-8.552089,-3.485958,-64.48092,54.8168,3.725191
-2.832341,-10.20409,-5.683835,86.00764,27.67939,29.54962
0.4309563,-6.368577,-1.757344,-55.31298,45.32061,9.015267
-2.552219,-10.18254,-3.713407,17.87786,43.48092,11.1145
-0.641646,-10.44111,-2.377442,3.0,34.48855,1.503817
0.3351882,-11.3964,-4.261679,-35.38931,30.16031,-5.091603
-0.6440403,-6.921637,-6.751649,84.10687,81.19847,36.12977
-2.710236,-7.608773,1.587356,-81.69466,-20.24427,-7.885496
0.1149217,-12.33972,-7.007828,91.22137,28.47328,-4.847328
1.13964,-4.714183,0.1795651,-40.29771,20.19084,2.19084
-2.157176,-11.89439,-3.28245,-14.96183,-8.778625,7.045802
-1.256956,-8.719683,-1.642422,-10.80153,-39.51145,9.465649
-1.039083,-12.35887,-3.351882,-17.21374,-46.26717,-18.8855
0.1053449,-8.7125,-6.531382,-1.80916,-0.5114504,14.60305
-2.164358,-6.660669,-2.025495,-3.961832,-33.38168,-16.79389
-0.1651999,-11.96143,-5.621585,-3.312977,2.687023,16.47328
-3.351882,-6.021417,-1.833959,20.81679,11.49618,8.824428
-0.7445967,-10.55604,-3.801992,-20.67175,8.801527,-7.755725
-1.374272,-8.331821,-1.70946,17.23664,31.74809,-10.05344
-1.072602,-11.14501,-3.038242,-13.38168,28.27481,-10.35878
-2.434903,-10.36929,-4.709395,4.015267,10.14504,7.89313
-0.5530606,-6.945579,-5.595249,15.8855,26.9084,3.083969
-1.046266,-8.841787,-2.217031,-40.9542,-21.83206,-13.19847
-1.237802,-11.29824,-6.835446,46.93893,-35.30534,-28.54198
2.530671,-5.214571,-0.7613561,-14.90076,-9.389313,-4.931298
-1.601721,-11.23838,-3.411737,-4.725191,-7.824428,9.709924
-0.1747767,-8.975863,-3.011906,4.549618,-11.70992,6.717557
-3.021482,-11.29584,-2.616863,-11.90076,-42.12977,-0.5419847
-1.158794,-9.593566,-5.499481,23.85496,-53.46565,-6.847328
-1.39582,-5.83467,-2.451663,-4.862596,-82.08397,-30.19847
-0.248997,-13.38598,-6.488286,-19.51145,-41.78626,-13.35114
-2.956839,-6.402095,-0.6679823,40.1832,-63.90076,1.335878
-1.721431,-9.217676,-2.834735,-53.32061,-50.98473,-30.48092
-0.8188169,-9.342175,-3.294421,3.526718,-28.27481,-23.26718
0.9217676,-10.60153,-2.482787,-16.83206,-7.793893,-20.82443
-1.563414,-11.22402,-5.667076,16.96947,17.70229,10.74809
-0.5147533,-6.667852,-3.232172,1.305344,49.06107,-12.03053
0.2059013,-8.267179,-4.661511,-16.25191,42.0229,10.43511
-0.842759,-11.00136,-4.560954,-10.42748,5.770992,-8.221375
0.5506664,-8.030152,-4.007894,18.42748,28.22137,2.625954
1.151611,-8.643068,-3.076549,-43.67939,14.75572,5.412214
-0.6440403,-10.20648,-3.835511,18.74046,8.587787,8.633588
0.02873042,-8.65025,-2.679112,-13.61832,-4.366412,14.51908
-0.1628057,-10.24479,-3.349488,23.1145,-11.39695,18.03053
0.3399766,-9.109938,-4.103662,-17.46565,-0.8549618,-0.8091603
0.05027823,-9.176975,-4.402937,23.39695,15.52672,23.22137
-1.704672,-8.243237,-3.952827,-1.625954,-2.343511,1.847328
-1.297657,-9.454702,-3.045424,3.687023,19.9542,13.94656
-1.991976,-9.679757,-3.773262,14.27481,-3.580153,16.44275
-2.059013,-8.154651,-2.466028,-20.99237,-7.625954,2.984733
-1.836353,-9.883265,-3.74932,0.648855,-12.39695,-3.458015
-1.912967,-9.299079,-2.906561,-7.641222,-14.71756,-18.51145
0.1125275,-9.842564,-3.021482,6.427481,16.37405,-19.56489
-1.596933,-9.993398,-5.327099,21.78626,9.664123,-22.55725
0.2681506,-6.473921,-2.765303,2.625954,22.34351,7.671756
-2.080561,-12.98854,-5.116409,23.37405,-38.9313,-28.59542
0.9552865,-6.924031,-1.546654,39.43512,-24.39695,-16.9771
0.06224924,-9.41879,-2.154782,-51.25954,-52.69466,-20.87786
-0.2633622,-9.545682,-3.25372,22.96947,-62.03053,-7.396946
0.8283938,-10.25915,-2.451663,-33.96183,-63.98473,-24.25954
0.8212111,-9.143456,-2.178724,54.14504,-66.45802,-1.465649
-1.307234,-9.56723,-4.898537,-67.03053,-30.10687,-12.61832
-0.320823,-9.299079,-3.478775,33.30534,-72.68702,-7.290076
-0.1340753,-8.307879,-4.709395,-29.19084,-40.99237,9.305344
-3.70383,-10.17057,-3.222595,24.74809,-66.51145,0.3587786
-0.8882488,-9.076419,-2.5187,-4.0,-36.52672,2.465649
-2.999935,-8.48984,-2.619257,-24.05343,-44.72519,-8.374045
-1.331176,-10.23761,-3.615245,-11.24428,-25.29771,-6.801527
-2.080561,-8.779537,-2.152387,-5.053435,1.587786,-14.58779
-1.553837,-9.950302,-2.904167,-12.17557,12.22137,-9.175572
-1.889025,-10.45069,-4.381389,18.9542,-6.732824,-7.007634
-1.778892,-8.307879,-3.205836,-2.198473,25.32061,-13.17557
0.3160346,-9.062054,-4.378995,14.80916,7.206107,-18.85496
0.9481038,-9.344569,-2.985569,27.50382,32.38168,-1.29771
-0.7374141,-9.742006,-3.421314,-0.7633588,5.175572,-19.54198
1.762132,-8.001422,-1.39582,-4.473282,17.75573,-3.587786
0.4668693,-9.957485,-2.755726,-9.564885,22.33588,7.076336
-1.367089,-9.07163,-1.678335,-26.07634,-16.13741,11.61832
-0.3016694,-10.39562,-2.446874,13.07634,-33.0687,11.58779
0.5961562,-9.940725,-2.267309,-5.91603,-36.87023,3.137405
0.1173159,-10.82179,-4.955997,-13.67939,-4.572519,11.81679
-0.617704,-7.659051,-2.664747,22.39695,-32.13741,11.9771
-2.765303,-8.820239,-4.10845,-41.31298,-19.19847,-0.648855
0.04788403,-11.06121,-4.752491,48.05344,-12.89313,6.900764
-3.074155,-6.852205,-2.442086,-0.3282443,-7.473282,24.06107
-2.262521,-9.895236,-2.911349,-16.35878,-23.41985,-8.824428
-1.300052,-8.908825,-2.470816,-2.068702,7.931298,5.923664
-1.757344,-9.564836,-3.150769,-13.87023,18.68702,-3.770992
-1.412579,-9.545682,-2.044648,13.90076,25.96183,-6.503817
-2.291251,-9.988609,-4.036624,-33.84733,18.67939,4.114504
-0.8978256,-9.394848,-3.114856,20.07634,29.63359,-17.14504
-0.09576806,-7.714118,-4.247314,-34.51908,42.0458,-8.022901
-0.1867477,-10.0341,-4.793192,28.1145,44.78626,-2.961832
-2.583344,-10.26634,-2.966416,6.70229,-9.427481,-19.32061
2.025495,-8.231265,-3.359065,21.78626,12.0458,-22.61069
1.323994,-9.07163,-2.932897,-16.0687,7.862596,1.984733
-0.5985504,-9.562442,-2.839523,16.18321,-14.79389,-7.793893
1.338359,-8.920795,-2.147599,-19.51908,-17.80153,-2.80916
1.120486,-9.957485,-2.645593,12.19084,-17.17557,2.129771
1.122881,-9.222465,-2.226608,-4.396946,-6.08397,8.877863
0.6440403,-9.337387,-2.200271,-9.465649,-4.0,12.64886
-0.1316811,-9.782708,-4.886566,-32.43512,1.954198,11.45038
-0.2011129,-8.992621,-2.717419,-3.022901,-21.25954,8.893129
-0.2106898,-9.619903,-4.721366,9.053435,7.274809,24.77099
-1.936909,-8.339005,-3.13401,-2.687023,-12.45038,13.27481
-1.84593,-10.31662,-4.060566,10.32061,4.427481,11.0458
-2.118869,-8.753201,-3.263297,8.442748,-13.69466,11.0458
-2.401384,-8.734048,-2.748544,-9.099236,-12.25191,-0.7709923
-1.68073,-9.495404,-2.925714,-2.671756,-8.244275,-8.816793
-1.640028,-9.528923,-2.650381,-0.5038168,3.335878,-11.38168
-1.788469,-9.306262,-2.212242,6.114504,7.343512,-10.30534
-2.073379,-10.6949,-2.195483,-0.1908397,-6.351145,-5.435114
-2.767697,-9.993398,-3.845088,-0.4961832,-22.16031,-7.076336
-2.025495,-8.616732,-3.845088,31.36641,-29.09924,-29.32061
0.1244985,-8.111555,-2.597709,-20.32825,-34.56488,-32.61832
0.1005565,-11.83214,-6.181829,40.0916,-28.77099,-27.44275
1.917756,-6.6894,-0.938527,23.21374,-7.496183,-32.38168
-0.08858546,-10.19212,-2.394202,-14.43511,-40.19084,-9.954199
1.790863,-9.244013,-3.318364,3.10687,-20.61832,-3.274809
0.8212111,-10.42914,-2.059013,-4.335878,-16.27481,-1.793893
2.3535,-8.643068,-1.441309,10.38931,15.34351,10.70229
-0.5722142,-9.957485,-0.9911995,-10.84733,-3.89313,13.50382
0.6871359,-9.607931,-1.788469,-10.72519,-2.770992,23.03053
1.438915,-11.16656,-3.864242,-50.61832,9.160305,3.832061
-1.04866,-9.346964,-2.094927,51.0458,2.984733,26.00763
-0.9959879,-7.773973,-4.390966,-47.40458,6.068702,13.90076
-0.7230489,-11.33415,-4.027047,26.77099,24.85496,20.52672
-0.5506664,-8.317456,-2.547431,53.59542,39.35115,52.64122
-5.432444,-7.414843,-1.005565,-69.52672,1.435114,-5.984733
0.4908113,-12.14818,-5.013458,26.48092,16.10687,17.01527
-2.791639,-7.07726,-0.5913678,-4.19084,17.14504,-6.969466
-2.126051,-10.63744,-2.959233,-21.92366,8.221375,-20.16031
-1.843535,-9.682152,-1.355118,29.66412,4.847328,-6.648855
-2.827552,-10.19212,-2.789245,-21.12214,-23.73282,-16.46565
-1.309628,-9.562442,-3.275268,-3.374046,-33.26717,-18.32061
-0.28491,-8.063671,-4.41012,26.48092,-8.374045,-1.732824
-3.1795,-11.45865,-1.460463,-20.41221,-67.35878,-31.49618
0.2825158,-8.288726,-3.720589,48.63359,-45.32061,-23.23664
0.5865794,-8.978256,-1.163582,-48.82443,-43.44275,-21.9313
-0.9504981,-10.3645,-2.387019,36.93893,-40.60305,-6.656488
-0.1771709,-8.746018,-0.9121908,-28.9542,-48.74809,-1.59542
-0.6153098,-10.69011,-1.90339,10.18321,-49.1145,-0.4198473
0.5291186,-10.01495,-4.525041,-23.85496,-20.0229,-7.564886
-1.077391,-9.121908,-3.038242,2.832061,-34.33588,13.51908
-0.4141969,-7.773973,-2.882619,-21.28244,-46.0,-0.7022901
-4.098873,-9.473856,-4.304775,-3.793893,-60.83969,-0.9160305
1.125275,-10.24239,-3.545813,-24.79389,-25.27481,-7.129771
-3.232172,-7.958326,-2.815581,13.8855,-18.39695,18.07634
-1.879448,-9.67018,-3.280056,-37.25191,-23.40458,-15.52672
-0.926556,-9.974244,-2.899378,32.13741,10.43511,-3.160305
-2.154782,-8.760384,-1.690306,0.7175572,21.58779,-12.58779
-1.486799,-10.38365,-2.044648,22.69466,28.07634,-4.51145
-3.363853,-11.04924,-4.288015,-23.10687,-4.259542,6.396946
-1.000776,-9.119514,-3.73256,50.70992,6.045802,-5.946565
-0.5746084,-7.074866,-2.547431,-46.01527,-22.71756,-20.66412
0.009576806,-12.33732,-4.774038,39.17557,-13.77099,-3.610687
-1.692701,-8.104373,-3.026271,21.89313,-29.35114,-24.06107
1.077391,-8.604761,-1.75495,-15.98473,-35.79389,-9.229008
-0.7589619,-10.92474,-2.999935,28.05343,-23.16031,-5.564886
0.06464344,-8.765172,-1.374272,-15.46565,-32.60305,-16.08397
0.6679823,-9.907207,-1.651999,2.687023,-15.0687,-1.824428
-0.009576806,-9.588778,-1.223437,4.335878,-13.43511,2.70229
0.320823,-9.107543,-1.843535,-24.67939,-4.59542,3.740458
0.1244985,-10.6542,-3.689465,-12.38931,27.83206,2.442748
-0.09337386,-8.65025,-1.161188,-1.335878,-5.877862,9.442748
0.8619126,-10.48421,-2.956839,-40.52672,25.07634,5.38168
-1.082179,-10.75475,-2.138022,19.06107,23.30534,5.244275
0.7086837,-8.322245,-2.557007,-25.08397,27.90076,12.01527
-1.853112,-8.832211,-4.733337,-0.3053435,15.58779,7.938931
-0.7661445,-9.91439,-3.780444,-1.961832,15.06107,7.59542
-0.6703765,-9.361329,-4.27365,37.9542,17.9771,45.03817
-2.82037,-7.788338,-1.517924,-20.22137,22.30534,2.610687
-1.850718,-10.42196,-3.076549,1.671756,-1.328244,-1.10687
-1.371878,-8.753201,-1.716643,7.770992,15.21374,-3.870229
-2.513912,-9.153033,-2.516306,-29.70229,16.32825,-9.0
0.2513912,-12.31099,-4.639963,20.9313,13.74809,5.847328
-1.393425,-7.189788,-4.733337,-3.137405,24.10687,2.129771
1.233014,-7.694964,-3.751714,8.396947,-3.816794,3.717557
-2.942474,-12.39239,-4.220978,-10.49618,-28.84733,-19.31298
0.4716577,-7.082048,-1.335965,40.15267,-23.91603,-12.77099
0.3160346,-9.483433,-2.094927,-41.9771,-7.633588,-1.59542
-1.443704,-10.25437,-2.645593,38.13741,-22.37405,1.70229
-0.5291186,-8.276755,-1.063026,-45.37405,-38.15267,-4.442748
-2.061408,-11.73638,-2.39899,8.984733,-43.64885,4.763359
1.319205,-9.979033,-3.837905,-17.09924,-2.770992,-2.427481
-1.055843,-8.085219,-3.89776,2.908397,-22.56489,8.870229
0.5195417,-9.672575,-3.825934,-1.641221,38.32061,-4.068702
-1.029507,-9.509769,-4.795586,51.46565,33.03053,38.48092
-2.889802,-7.065289,-0.8259995,-39.14504,34.87023,3.877863
-1.438915,-10.53449,-3.414132,14.41221,32.80153,4.70229
-1.448492,-8.264784,-1.707066,-27.45802,36.17557,-8.38168
-0.782904,-12.4714,-2.432509,34.77099,53.73283,-4.870229
-2.013524,-10.80503,-3.359065,-37.0916,4.526718,3.29771
1.21386,-5.767632,-4.295198,20.62595,76.92367,11.1374
-3.031059,-12.24634,-3.220201,-41.77099,-19.43511,-5.938931
1.553837,-8.602366,-3.29921,76.21374,20.77099,-6.328244
-0.4908113,-6.967127,-1.340753,-76.40458,0.5343512,-16.30534
-0.4189853,-12.40436,-3.572149,61.74046,-18.15267,3.755725
-0.3256114,-8.008605,-0.9600749,-50.60305,-54.77099,7.061069
-1.292869,-11.62864,-2.930503,49.64122,-33.05344,21.16031
-1.388637,-9.921572,-5.841852,-22.59542,-13.59542,-9.832061
-0.2082956,-6.28478,-1.704672,5.320611,-0.2442748,-4.824428
-2.075773,-11.54484,-5.324705,25.55725,1.236641,27.57252
-2.719813,-5.686229,-0.5075707,-26.35878,-10.30534,-16.81679
0.1795651,-11.81299,-3.6751,-15.22901,14.22901,-13.00763
-1.87466,-8.595184,-1.968034,-5.08397,16.54198,-4.465649
-0.8331822,-13.15135,-3.545813,-3.954198,27.54962,16.94657
-2.293645,-9.61272,0.8523358,-31.74809,42.43512,21.45038
0.926556,-8.930372,-3.888184,-5.274809,-24.06107,-11.44275
-3.368642,-10.27352,-5.980716,57.75573,-5.832061,-4.396946
1.577779,-5.236119,-0.6033388,-32.48092,4.251908,-9.053435
-0.3711013,-11.63821,-4.158728,-15.79389,12.17557,7.977099
-1.000776,-7.637504,-1.292869,16.1145,-19.99237,5.152672
-0.7015011,-11.49696,-3.028665,-29.61069,-22.03817,-0.7557252
-0.272939,-10.30704,-3.986346,5.778626,-25.03053,-5.122138
0.4501099,-9.07163,-3.641581,11.37405,-5.839694,9.549619
-2.437297,-7.472303,-3.284845,13.0916,-19.74809,-5.59542
0.09576806,-11.84412,-3.457227,7.290076,18.51908,2.580153
-1.936909,-6.811504,-2.722207,26.53435,19.21374,20.54962
-2.932897,-9.768343,-2.317587,-48.9313,-1.282443,-19.37405
0.06703765,-9.507375,-2.317587,26.55725,13.35114,-5.717557
-2.851494,-9.947908,-2.77488,-51.19084,20.80153,0.6870229
-0.4333505,-11.03966,-4.165911,13.69466,1.183206,6.229008
-1.414973,-7.706935,-3.239355,26.41985,18.1145,-2.946565
2.003947,-6.713342,-3.280056,-48.60305,20.98473,3.923664
-3.624821,-12.67251,-6.064513,53.67176,6.427481,-11.22901
2.801216,-4.103662,0.9672575,-27.81679,5.961832,-0.2290076
-1.510741,-10.99178,-2.94008,1.145038,13.91603,28.70992
-3.430891,-12.31099,-2.741361,-56.12214,-29.35114,-4.458015
1.56102,-8.99741,-3.620033,4.793893,-40.74809,-15.43511
-2.616863,-7.592013,-4.110844,8.526717,-1.175573,0.3435115
1.534683,-9.818622,-3.720589,-32.65649,-39.38931,-25.78626
-3.689465,-6.983886,-2.880225,51.45802,42.52672,28.17557
-0.1532289,-8.961497,-2.671929,-39.70992,-6.343512,-33.1145
0.4932055,-14.51604,-4.129998,40.21374,48.03053,5.458015
0.4501099,-7.644686,-5.913678,4.198473,31.31298,49.07634
-7.161057,-7.644686,3.117251,-5.938931,-9.061069,-7.022901
3.483563,-9.390059,-6.653487,29.92366,15.72519,1.244275
0.5386954,-5.592855,0.6105214,24.9771,28.25191,15.94656
-2.133234,-10.98699,-2.547431,-71.12214,-19.41221,6.885496
-1.089362,-13.92228,-5.801151,43.1832,-53.83969,-17.90076
-0.4285621,-5.023035,-1.951274,16.73282,-16.61832,6.877862
2.434903,-10.83376,-3.294421,-106.2366,44.0916,-15.0229
-3.497929,-9.768343,-5.633556,139.1908,22.32825,50.39695
-1.711854,-5.255273,0.9074024,-110.1603,-6.305344,-37.82443
-0.5315128,-12.05241,-4.493917,50.64885,37.01527,6.152672
-0.8140285,-13.38598,-0.9337386,-21.65649,9.984733,-13.01527
-1.774103,-8.698134,-5.178658,3.244275,11.29008,0.832061
-0.521936,-7.45315,-0.5147533,24.74809,11.92366,2.694656
-1.04866,-10.54646,-5.710171,-57.63359,-23.78626,-21.89313
2.128445,-7.256825,-0.4884171,54.9542,-9.335877,-1.870229
-0.6967127,-8.726865,-1.426944,-58.61069,-11.15267,15.28244
-0.7422025,-10.16339,-2.094927,-1.48855,-26.07634,8.961832
-1.719037,-14.51126,-6.071695,-28.67175,-24.08397,-17.0458
-1.690306,-7.548918,-3.385401,67.12214,-52.45038,-8.0
2.511518,-8.058883,-2.27928,-69.229,46.91603,-6.076336
-3.842694,-9.449914,-5.298368,78.0229,32.87786,43.45802
-1.091756,-6.856994,-0.7876924,-56.03053,-8.396947,-31.54198
-1.237802,-10.17057,-3.181894,29.86259,32.85496,5.824428
-1.237802,-13.51527,-2.217031,-31.49618,-0.4580153,-8.839695
-0.1388637,-9.825804,-7.917625,47.64122,26.9084,29.48092
-2.6839,-4.996699,3.186682,1.900763,10.73282,4.900764
-0.7781156,-12.4307,-8.432379,-35.96947,4.473282,-24.29008
2.813187,-5.702989,0.2992752,76.73283,17.36641,11.79389
-2.86586,-9.792285,-0.8762778,-62.52672,-7.129771,14.0687
-1.66397,-13.97017,-2.585738,23.03817,-25.25954,-6.122138
0.8236053,-8.623915,-4.831499,-31.13741,-26.60305,-10.34351
-1.369483,-8.159439,-2.427721,35.31298,-33.16031,-5.755725
1.723825,-10.06044,-3.526659,-32.94656,17.47328,0.08396947
-5.090073,-7.101202,-1.103727,40.45802,19.85496,23.96183
-1.103727,-8.918402,-1.793257,-48.71756,-10.36641,-27.54198
-1.16837,-10.84813,-2.999935,-10.76336,14.0687,1.068702
2.659958,-11.892,-6.05733,23.67939,32.85496,23.75573
-1.163582,-5.092467,-5.803545,52.85496,90.23664,35.16031
-3.562572,-10.28549,-3.421314,-102.3511,-63.40458,-40.54198
2.382231,-8.942344,-1.628057,94.32061,-9.351145,0.3740458
-1.501164,-7.041347,-0.6584055,-76.24428,-3.763359,13.9542
-1.953669,-11.67892,-3.529053,-17.83206,-34.8168,-10.67176
-0.9217676,-11.46823,-6.311116,3.656489,-21.70229,8.862596
-1.33357,-6.856994,-3.095703,42.58779,-78.22137,-23.54962
1.534683,-8.971074,-2.533065,-93.61069,35.91603,-21.16794
-3.713407,-10.27831,-5.975927,101.855,-10.48855,27.09924
-1.429338,-5.463568,0.2035071,-71.72519,-33.83969,-37.64885
-1.132457,-12.05002,-4.098873,20.74809,6.671756,-4.007634
-1.35033,-12.8425,-1.022324,-4.282443,-4.183206,-13.54198
-2.736573,-8.315063,-5.011064,26.92366,-6.625954,11.12214
-0.4165911,-8.372523,-0.8283938,11.48092,-26.30534,-10.83969
-2.999935,-11.11388,-6.107608,-0.5648855,-28.41221,-17.41985
1.991976,-5.216966,1.067814,22.79389,-38.96183,-7.374046
-1.33357,-10.61589,-2.858677,-68.01527,-18.62595,12.51908
-0.1963245,-9.983821,-2.487576,21.83969,-21.24427,2.908397
-2.006341,-12.43548,-3.057395,-26.06107,1.709924,-0.1832061
-1.889025,-8.643068,-5.463568,17.9542,-36.8855,-20.0
3.46441,-8.437167,-2.796427,-45.84733,70.85497,-1.175573
-3.387795,-9.651027,-5.255273,58.27481,34.38168,42.0
-1.616086,-6.754043,-0.5913678,-30.62595,6.694656,-23.48092
-0.7876924,-10.00537,-2.363077,0.6564885,20.99237,-5.221374
-1.187524,-13.54879,-2.003947,2.89313,1.900763,-13.37405
0.4716577,-8.559271,-6.0286,29.58779,14.0916,32.25191
-3.275268,-7.94875,0.902614,22.52672,15.30534,-3.656489
0.5793968,-10.10114,-8.686164,7.351145,-4.10687,-13.48092
1.860295,-7.371747,0.9193734,20.8855,-20.36641,-16.56489
-2.0231,-10.4052,-2.770091,-11.12977,-35.39695,-5.526718
0.5410896,-8.645462,-0.9002198,2.923664,-53.77099,1.648855
1.630451,-10.16339,-2.092532,-7.519084,-32.93893,6.114504
0.1628057,-10.62786,-2.410961,-33.33588,-25.07634,12.83969
-2.075773,-10.18015,-5.89213,38.19084,20.22137,44.36641
-2.133234,-5.906496,-1.194707,-16.74809,-40.45038,-12.19847
-1.508347,-13.79539,-5.961562,20.57252,4.267176,30.99237
-3.878607,-4.982334,0.1221043,40.08397,6.358778,16.45038
-2.497152,-10.59913,-3.543418,-69.25954,7.78626,-5.755725
-2.899378,-9.337387,-2.305616,55.19084,-1.725191,-5.541985
-3.035848,-8.24563,-0.5147533,-39.72519,-6.992366,-27.06107
-3.308787,-9.763555,-2.547431,7.38168,-8.664123,-25.98473
-1.781286,-11.03727,-3.445256,-65.40458,-35.19084,-25.56489
-0.4477157,-10.91995,-6.157887,43.12214,-15.56489,-14.50382
0.5315128,-4.972757,-2.154782,-6.51145,-13.59542,-17.70992
-0.4453215,-13.44344,-6.545747,-8.183207,-43.67939,-36.39695
1.01993,-6.078878,-1.412579,47.48092,-42.63359,-21.39695
-0.6440403,-10.05086,-3.016694,-50.45802,-56.26717,-19.81679
0.4644751,-8.932767,-2.806004,27.75573,-64.73283,-15.12977
-0.3280056,-8.372523,-1.570596,-40.72519,-76.41985,-3.412214
1.690306,-11.37485,-3.998317,20.9084,-50.70229,-13.35878
-0.926556,-8.391677,-2.48997,-9.167939,-78.8855,-8.541985
-2.480393,-11.19529,-5.547365,-1.099237,-47.03053,9.648855
-1.043872,-5.729325,-4.493917,18.9771,-82.28244,11.47328
-2.916138,-11.35809,-2.628834,-35.14504,-80.39695,-29.1145
-2.913743,-8.279149,-2.051831,28.85496,-75.1145,-8.229008
-2.827552,-8.884883,-2.561796,-49.65649,-54.25191,-25.60305
-3.3447,-9.859323,-2.41575,13.31298,-46.62595,-26.63359
-0.9361328,-10.01016,-1.774103,-24.54198,-20.0229,-31.94657
-3.900155,-11.33415,-5.00867,45.27481,-41.25954,-18.60305
1.766921,-4.608838,-2.736573,-2.167939,0.740458,-17.12214
-4.101267,-14.36521,-6.301539,-26.37405,-75.34351,-44.77099
1.87466,-5.473145,-1.005565,60.87786,-47.86259,-20.8855
-0.6560113,-10.01973,-2.552219,-74.17558,-40.12214,-10.72519
-0.4237737,-9.988609,-1.848324,54.83206,-39.93893,-0.8854962
0.4764462,-8.827422,-2.260126,-58.23664,-14.73282,0.480916
-2.607286,-11.93031,-1.640028,29.50382,-37.9313,4.885496
1.893814,-9.469068,-5.140351,-51.74046,5.503817,4.778626
-1.778892,-8.327033,-2.973598,34.49618,-16.32061,24.09924
-0.5722142,-6.677429,-3.239355,-48.74809,-2.091603,-30.25191
-0.3711013,-13.35246,-5.77242,40.98473,-0.1984733,6.946565
-1.896208,-4.352659,-1.180341,-21.94657,10.53435,13.83206
-2.882619,-11.29345,-3.811569,-9.137404,-18.49618,-22.25191
-0.7302315,-7.934384,-1.355118,-3.992366,-9.21374,-10.53435
-1.187524,-12.94545,-3.114856,5.526718,-7.832061,-9.229008
0.3064578,-9.864111,-5.932832,-9.0,-31.73282,-1.969466
0.1149217,-6.610391,-3.241749,88.61069,66.77863,28.70992
-2.509123,-9.600749,-5.465962,-82.38168,-17.84733,-25.53435
2.952051,-8.401254,-2.310405,91.83969,14.74046,9.778625
-2.13084,-7.970297,-0.7182605,-50.33588,-3.40458,10.07634
-0.5961562,-10.29986,-1.766921,3.534351,-30.06107,9.664123
-2.449268,-13.08431,-2.566584,-2.877863,-43.36641,-1.442748
0.7230489,-9.07163,-6.394913,14.35114,16.21374,10.83206
0.7517793,-4.553771,-1.616086,-2.633588,15.61069,-5.541985
-0.3998317,-13.3357,-7.079654,33.86259,22.59542,26.25954
-4.922479,-5.272032,1.233014,8.755725,11.77099,-3.053435
0.2777274,-8.89446,-2.875436,-44.9542,17.31298,-20.0229
-2.080561,-11.39401,-3.754108,9.419847,20.70992,-5.160306
1.316811,-11.22402,-3.497929,-15.70992,5.480916,-0.7709923
-0.4333505,-7.654263,-8.355764,50.33588,68.25954,22.61069
-3.711013,-7.493851,1.429338,-100.5954,-75.12214,-24.05343
1.805228,-10.91517,-5.396531,81.74046,-3.832061,-14.27481
0.4309563,-5.779603,-0.213084,-39.0229,9.503817,17.56489
-1.367089,-11.71004,-2.619257,1.648855,-9.328244,5.61832
-2.011129,-13.9582,-1.972822,4.068702,-11.57252,11.0916
0.6464345,-9.13388,-7.386112,-18.55725,0.5343512,-0.8396947
-1.374272,-6.138733,-2.121263,22.57252,3.396947,-5.717557
0.2825158,-11.55681,-5.312734,6.641222,-3.633588,10.67939
-4.491522,-5.81791,0.2920926,9.534351,-10.00763,0.3129771
-0.6033388,-9.830592,-3.303998,-21.80153,-9.763359,-24.40458
-1.570596,-11.37725,-2.5187,-4.877862,-10.98473,-16.86259
-0.5410896,-11.1881,-5.949591,14.09924,-12.03817,25.35878
0.1987187,-6.153099,-3.112462,59.29008,72.771,2.40458
-3.234566,-10.10593,-4.920084,-85.67939,-6.122138,-1.885496
2.659958,-8.066066,-1.091756,79.23664,-2.343511,0.1221374
-1.345541,-8.954314,-1.525106,-36.67176,15.0687,16.77863
-2.149993,-10.74039,-2.32477,-4.625954,-24.13741,4.648855
-0.308852,-10.02692,-4.575319,-4.099236,-21.61069,4.900764
-1.575385,-7.69257,-4.141969,21.20611,-40.33588,-11.16794
1.999158,-10.24718,-2.667141,-44.8855,12.35114,-12.83969
-4.048595,-7.876924,-2.578555,65.62595,25.23664,29.84733
-1.604115,-8.748413,-2.23379,-68.70229,-29.73282,-38.80153
-0.3854665,-9.955091,-2.791639,35.83206,7.748092,-2.114504
1.616086,-13.9151,-3.775656,-13.64886,31.67175,9.610687
-1.80044,-7.491457,-7.587225,19.28244,49.76336,24.63359
-3.205836,-7.606379,0.9911995,-38.50382,-43.50382,-10.90076
0.9648633,-11.45386,-5.281609,47.12214,-5.480916,-18.99237
-0.4596867,-5.707777,0.1292869,-37.91603,5.48855,6.022901
-1.25935,-11.66934,-3.138798,-1.946565,-31.68702,-5.908397
-2.626439,-13.69005,-5.554548,2.709924,-29.68702,-3.152672
-0.9217676,-6.742072,-4.036624,30.19084,-79.73283,-22.9084
2.710236,-8.403648,-1.316811,-70.17558,31.75573,-24.03053
-3.450045,-10.69729,-6.569689,96.32061,-0.8167939,42.96947
-1.747767,-5.260061,1.960851,-56.9542,-28.0,-37.01527
-0.004788403,-11.02769,-4.395754,-14.37405,38.0916,1.038168
-0.002394202,-13.70441,-2.513912,-7.320611,20.01527,3.244275
-0.6344634,-8.324639,-8.255207,23.14504,46.42748,10.27481
0.2178724,-5.257667,2.135628,1.366412,25.75573,6.328244
-0.7637503,-13.32134,-8.513782,-49.66412,7.78626,-12.70229
1.582567,-5.544971,0.842759,66.73283,20.8855,11.16031
-0.3280056,-9.646238,-1.668759,-85.1832,-3.038168,8.900764
-2.025495,-11.00136,-3.033453,36.67176,-18.24427,12.9771
-1.355118,-10.64941,-3.497929,-15.37405,-52.47328,-11.26718
-1.407791,-7.896077,-5.233725,15.22137,-48.29771,-16.38931
3.315969,-9.931149,-1.929727,-8.854961,12.62595,-10.54962
-4.458004,-7.922413,-3.79481,20.64122,38.40458,34.78626
-0.01675941,-8.104373,-2.355895,-10.0,-33.06107,-21.52672
-0.1125275,-10.55843,-1.374272,-16.08397,32.05344,-9.580153
-2.456451,-10.77391,-1.805228,1.992366,-2.885496,-0.6183206
1.35033,-10.49857,-8.348581,23.21374,41.25954,11.93893
-2.461239,-5.020641,1.474828,11.22901,23.76336,27.55725
-0.6560113,-12.83771,-7.37893,-21.50382,-5.885496,-21.14504
2.303222,-5.552154,0.6655881,34.94656,9.725191,12.74046
-1.795651,-11.07558,-2.243367,-28.70229,-6.335878,7.587786
-0.9121908,-10.80024,-2.212242,-9.221375,-22.89313,-4.274809
0.4620809,-9.648633,-6.289568,-29.47328,0.8625955,2.977099
-2.602497,-8.327033,-2.908955,80.9771,-57.38168,-3.625954
2.059013,-10.0317,-2.863465,-80.58778,7.526718,-18.1145
-3.708618,-8.554482,-2.671929,70.22137,5.870229,29.60305
-0.5267244,-8.355764,-2.367866,-60.25954,-15.76336,-24.67175
-0.8499416,-9.485827,-2.27928,26.77099,16.9313,-11.71756
0.1939303,-13.4626,-4.350265,-70.01527,-13.38931,-4.503817
-0.4453215,-8.461109,-6.550536,80.1832,64.0229,31.34351
-2.726996,-7.050924,1.134852,-71.27481,-43.93893,-8.312977
-0.5530606,-12.0979,-7.189788,102.1756,8.740458,-4.427481
0.7230489,-5.068525,0.3016694,-59.9084,1.229008,-7.679389
-1.326388,-11.77947,-4.053383,6.435114,-2.916031,-1.419847
-0.3950433,-8.439561,-2.183512,-17.82443,-8.870229,-1.229008
-2.255338,-11.23838,-1.980005,16.78626,-24.31298,-1.824428
0.581791,-9.076419,-3.215413,-38.74046,-21.83206,-11.41985
-1.731008,-9.742006,-5.102044,23.47328,-19.87786,19.17557
-0.7206547,-6.936002,-3.062184,-27.70229,-52.64885,-33.21374
-1.120486,-12.66293,-4.824317,37.42748,-26.14504,18.06107
-1.271321,-7.005434,-1.209072,2.435115,-21.70992,2.679389
-1.75495,-9.725247,-3.275268,-23.81679,-10.58015,8.274809
-1.740585,-8.966286,-2.106898,22.12214,-16.0458,-0.8778625
-2.698265,-9.081207,-2.339135,-18.61069,-11.96183,-0.5038168
-2.288857,-8.90643,-1.503559,-17.0,-3.030534,-14.52672
-0.9504981,-10.56082,-2.703054,11.71756,21.54198,-11.61069
-4.551377,-8.848969,-2.126051,-26.76336,0.5114504,-19.85496
1.383849,-11.87045,-6.890512,-26.68702,-0.1221374,-11.59542
0.5410896,-7.220912,-2.425326,77.55725,40.87786,8.977099
1.68073,-12.42351,-6.588843,-23.41221,30.75573,-32.28244
1.956063,-6.215348,-1.249773,55.61832,8.312977,-13.07634
0.5386954,-10.64462,-2.389413,-63.84733,16.74046,-13.07634
-0.5506664,-8.99741,-2.037466,37.86259,-19.31298,2.458015
0.7852982,-9.057265,-1.932121,-36.16031,-26.87786,10.22901
-3.126827,-10.91277,-2.355895,12.61832,-69.85497,14.77099
3.203442,-10.46745,-5.523423,-50.19084,-14.90076,-31.26718
0.7876924,-7.659051,-3.694253,47.67176,-33.30534,25.0687
0.2059013,-8.848969,-4.125209,-43.78626,4.0,1.290076
-1.113304,-10.70448,-3.586514,37.49618,-9.328244,-1.603053
-0.5985504,-7.204153,-1.831564,-43.0,4.679389,7.519084
-2.226608,-11.12825,-4.211401,11.93893,-9.687023,-14.0458
-0.002394202,-8.305486,-1.608904,-12.43511,8.740458,-6.167939
-1.386243,-12.12184,-3.859453,37.38168,29.54198,3.870229
2.487576,-8.269572,-5.839458,-60.8168,30.28244,-0.5954198
0.2442086,-8.058883,-2.41575,73.55725,82.46565,26.48092
-0.6320692,-10.15141,-4.15394,-47.16031,51.80153,-5.984733
3.011906,-8.030152,-1.623269,39.80153,58.86259,15.91603
-0.3806781,-9.478644,-1.558625,-27.45802,48.16794,28.69466
-0.1197101,-9.363723,-1.826776,12.61832,22.65649,26.40458
-0.8379706,-12.61265,-3.787627,-41.58015,-15.65649,-8.305344
0.1723825,-8.394072,-6.019023,4.129771,16.83206,21.41985
-0.7637503,-6.83784,-2.080561,28.9542,-21.72519,-2.160305
-0.28491,-12.1386,-6.177041,-15.45038,28.32061,33.71756
-2.080561,-7.07726,-1.161188,36.75573,0.1832061,-0.1221374
-0.2633622,-10.17296,-3.689465,-15.37405,12.27481,8.458015
-1.381454,-8.937555,-1.900996,-0.7328244,9.145039,-10.91603
-0.1795651,-12.19367,-3.011906,-4.038168,18.12977,-12.69466
-0.629675,-9.160215,-5.633556,2.167939,11.58015,-11.89313
-0.320823,-7.319075,-2.296039,18.81679,27.83206,11.21374
-0.9744401,-12.00932,-5.820304,-0.1068702,-17.58015,-22.00763
1.857901,-7.00304,-0.8714894,47.55725,-12.12977,-4.679389
-0.332794,-9.979033,-1.735796,4.961832,-22.48092,-9.496183
0.7469909,-8.875306,-1.735796,-12.63359,-17.01527,-4.015267
0.7422025,-9.445126,-1.616086,1.206107,-22.54962,-0.2290076
-0.1412579,-9.368511,-0.4405331,-20.98473,-34.0458,1.641221
-1.024718,-10.3214,-1.175553,-11.48855,-52.74809,11.08397
2.837129,-11.13543,-5.480328,-112.8092,-17.94657,-58.69466
-4.462792,-10.96784,-4.292804,94.58778,-56.32824,50.66412
2.128445,-4.967968,-3.53863,-93.21374,27.84733,-27.32825
-0.9504981,-12.93348,-8.073248,84.9313,26.57252,44.45802
-1.731008,-5.123591,-0.2346318,-3.877863,-11.35878,7.251908
-1.675941,-10.79546,-3.806781,-20.68702,-7.244275,-6.862596
-0.7876924,-9.55047,-2.767697,22.1145,2.19084,3.496183
-2.099715,-8.185776,-1.51553,-28.48855,-2.450382,-6.038168
-1.252167,-9.957485,-2.717419,-7.977099,3.908397,-7.137404
-0.8954314,-11.57357,-1.898602,-20.41221,-13.65649,-20.42748
-0.7326257,-9.959879,-5.080496,25.43511,-1.633588,-10.01527
0.2202666,-6.593631,-2.329558,-0.9312977,0.1145038,4.793893
-3.100491,-11.5185,-6.198588,6.610687,-15.22137,-15.47328
2.305616,-6.80911,-1.225831,14.19084,-27.84733,-20.17557
