ax,ay,az,gx,gy,gz
-1.37906,-11.46583,-3.919308,9.343512,-0.4885496,0.870229
0.01675941,-8.884883,-2.70066,8.274809,27.92366,21.41985
-2.08535,-8.671799,-2.147599,-22.33588,24.56489,9.694656
-0.2753332,-10.25676,-3.241749,6.603054,22.79389,6.664122
-0.8355764,-9.023746,-1.814805,-14.64122,28.90076,-2.526718
-1.733402,-9.804255,-2.602497,-2.618321,16.72519,3.068702
0.01915361,-10.68053,-2.23379,-0.5267176,8.328244,-0.9160305
-2.547431,-10.16339,-3.816358,-6.007634,-2.015267,-7.374046
1.661576,-7.912837,-3.679888,10.48855,16.34351,-13.16794
-0.09576806,-9.320627,-3.258508,-15.92366,30.25954,13.60305
-1.472434,-10.18972,-4.544195,33.08397,-15.58779,-19.47328
1.793257,-6.466739,-0.6009446,-20.35114,-17.40458,-8.458015
-0.03830723,-11.45865,-2.947262,-0.1832061,-12.63359,3.21374
-0.5291186,-7.85777,-0.2705448,-2.656489,-47.63359,5.877862
1.240196,-11.93988,-2.782062,-0.1221374,-31.20611,-14.75572
0.9672575,-11.42513,-6.73489,-25.69466,16.48855,3.427481
-1.580173,-6.931214,-2.236184,74.56489,-75.74809,0.0
-0.2657564,-9.885659,-3.1795,-107.916,13.77863,-6.549618
-0.6392518,-9.950302,-4.910508,102.2519,-12.77863,16.91603
-2.145205,-6.521805,-0.4572925,-76.62595,2.152672,1.274809
0.7326257,-11.01812,-3.53863,24.20611,22.93893,-8.038168
-1.182736,-10.3238,-2.231396,-7.610687,56.61069,7.358778
0.1101333,-10.08917,-5.583278,11.39695,17.50382,-11.21374
-0.5386954,-6.196194,-2.286463,36.54198,83.37405,39.62595
-2.212242,-12.87841,-5.798757,-54.01527,-28.74809,-25.94657
2.592921,-6.696582,-0.806846,80.70229,22.39695,0.7557252
0.5746084,-9.5385,-1.436521,-80.80916,17.38931,8.122137
-0.5075707,-10.13705,-2.128445,65.23664,8.770992,14.9313
-0.5171475,-10.53928,-0.8643068,-32.77099,-29.46565,4.946565
2.051831,-12.72997,-2.573767,20.82443,-28.69466,-17.50382
1.666364,-8.372523,-4.5418,0.4045802,31.66412,-0.7175572
-3.335123,-7.024588,-2.296039,-19.9313,-11.0687,13.54198
1.237802,-11.36767,-4.771644,9.435115,10.64886,4.450382
-2.13084,-5.899313,-0.09576806,-9.793893,6.007634,18.15267
-0.6560113,-10.71884,-2.458845,-23.81679,-1.206107,-17.0
-0.4620809,-9.435549,-2.707842,-13.31298,36.79389,-5.290076
0.4740519,-13.69483,-3.811569,-0.2061069,-21.0458,-7.503817
-0.7637503,-5.676652,-6.947973,13.77863,26.42748,5.412214
-2.336741,-11.45386,0.8379706,-40.45802,-102.7939,-29.39695
1.043872,-10.04607,-5.403713,68.65649,-13.43511,-22.9313
2.257732,-5.401319,0.2753332,-50.77863,-21.89313,6.564886
-0.2561796,-12.3876,-3.438074,24.21374,4.625954,6.931298
0.02873042,-9.763555,-2.056619,-24.9542,-20.03053,7.946565
-0.4884171,-10.20169,-4.359841,14.82443,-26.19847,10.81679
-1.417367,-7.513005,-3.835511,25.64886,-36.67939,-12.07634
1.56102,-11.67413,-3.440468,-42.66412,15.16031,-0.1450382
-3.019088,-8.224083,-3.050213,71.96947,18.98473,36.06107
-1.142034,-8.65025,-1.637634,-46.83969,-14.44275,-6.70229
-1.338359,-9.871294,-2.659958,3.832061,11.79389,-5.755725
-0.5722142,-8.860941,-2.157176,-10.67176,18.18321,-8.114504
-1.067814,-9.847352,-1.465251,-3.381679,42.57252,-4.145038
-2.719813,-10.66617,-0.4165911,-6.396946,28.26718,-14.40458
-4.276044,-11.3533,-7.319075,-101.9771,-88.89313,-14.12977
8.420407,-7.302315,-7.295133,114.3282,75.53435,0.5954198
-3.256114,-8.537724,-3.545813,-106.7328,-42.70229,-18.40458
1.860295,-10.00537,-2.58095,88.22137,-25.06107,-38.36641
1.448492,-7.601591,-1.443704,-39.58779,20.53435,11.62595
0.3064578,-9.873688,-1.963245,10.56489,-11.58779,12.0458
0.3184288,-9.56723,-2.006341,-24.54198,-27.61069,15.85496
0.08379706,-12.94784,-4.970363,19.09924,-23.9313,6.80916
1.92015,-7.659051,-5.21936,-4.0,4.603054,-11.23664
-1.604115,-8.607155,-3.181894,-10.01527,32.98473,19.36641
0.9289502,-9.466674,-5.554548,45.42748,36.12977,29.35878
-3.605668,-6.023811,1.156399,-35.41221,18.49618,8.824428
-0.1053449,-10.47942,-3.648763,-2.389313,9.847328,-8.114504
-0.806846,-9.016563,-1.594538,-18.79389,12.05344,-15.91603
1.319205,-12.2655,-2.636016,2.885496,-3.053435,8.129771
-3.016694,-8.121132,-6.189012,-9.175572,3.045802,-4.167939
0.5003881,-10.64701,-1.067814,-8.297709,-54.83206,-20.74809
-1.695095,-9.457097,-5.157111,21.38168,-16.9313,-27.51908
2.621651,-6.007052,0.4333505,-23.74809,-24.72519,-5.091603
-0.6248866,-10.80264,-2.255338,3.389313,1.496183,8.519084
0.641646,-10.56082,-2.817975,-20.87786,-0.9847328,2.725191
-1.61848,-10.76912,-4.479551,12.12977,-24.87023,7.549618
-0.03112462,-6.339846,-3.586514,18.78626,-59.9771,-10.22137
0.06224924,-10.47224,-4.537012,-79.59542,15.12214,-3.358779
-1.173159,-9.105149,-3.632004,94.35114,-30.61832,8.893129
-2.164358,-6.751649,-0.3734955,-92.61832,-34.29008,-19.67175
0.4596867,-11.12825,-3.885789,47.0458,-8.580153,-12.70992
-1.16837,-10.26155,-1.721431,-32.07634,0.6335878,-16.36641
-2.315193,-10.38365,-5.26485,45.96947,-45.83969,16.13741
0.2920926,-7.484274,-2.973598,23.76336,-5.763359,-15.22901
-2.521094,-10.82658,-5.013458,-27.54962,-35.86259,-27.16794
3.234566,-7.78355,-1.757344,91.16031,-44.24427,-19.9084
0.1436521,-7.060501,-0.926556,-72.9313,-1.847328,8.748092
-0.1939303,-12.38281,-3.955221,50.83206,-22.82443,-5.122138
-1.067814,-9.176975,1.568202,-12.27481,-38.31298,9.572519
2.11408,-11.35809,-8.999804,-48.26717,15.26718,-4.412214
-1.778892,-5.592855,-0.6105214,40.36641,-48.59542,4.396946
1.16837,-12.31099,-4.967968,-41.62595,-6.38168,8.625955
-2.949656,-6.232107,-0.2082956,49.07634,-3.396947,8.282443
1.288081,-10.18254,-2.954445,-57.1145,-1.343511,-5.412214
-2.882619,-10.95108,-2.533065,1.221374,16.57252,-5.465649
-0.04788403,-11.56639,-5.204995,33.37405,-47.79389,-3.885496
0.2992752,-5.38456,-4.299986,25.45802,75.48855,17.41221
-3.08852,-10.36929,-4.477157,-39.73283,-42.25191,-16.48092
3.141193,-8.128315,-2.121263,67.70229,-15.45802,-9.358779
0.4477157,-8.207323,-1.460463,-36.46565,7.053435,14.65649
-0.8451532,-11.11628,-2.231396,8.473283,-21.34351,3.931298
0.03112462,-12.99094,-1.80044,14.69466,-15.23664,3.175573
1.314417,-8.288726,-4.88896,-47.64122,17.28244,0.961832
-1.92015,-7.702147,-4.323928,6.633588,6.335878,10.96183
-0.07422025,-10.54885,-3.73256,13.05344,-13.29008,-8.977099
-2.468422,-6.667852,-0.3040636,-20.47328,-3.068702,7.885496
-0.04788403,-10.66377,-3.421314,-4.900764,-1.557252,-12.20611
-1.142034,-9.155427,-3.023877,-20.44275,6.015267,-2.198473
1.649605,-11.95904,-4.589684,43.21374,5.229008,0.5496183
-0.2466028,-5.116409,-7.290344,16.40458,64.50381,30.96947
-2.15957,-11.34852,-1.055843,-27.76336,-66.44275,-26.26718
2.748544,-8.554482,-3.39019,69.76336,21.26718,-18.46565
0.8762778,-6.277597,-0.5051765,-88.33588,13.8626,18.54962
0.6655881,-11.99256,-2.719813,48.64885,4.053435,1.564886
-0.7110779,-8.868123,-0.6536171,-37.20611,-20.31298,12.1374
2.935291,-11.10431,-6.560112,-39.51145,29.13741,11.32824
-2.394202,-6.648698,-2.980781,70.35878,3.351145,12.55725
2.41575,-12.23437,-3.993528,-82.21374,38.31298,-4.068702
-2.092532,-8.497022,-3.066972,77.07633,56.9771,44.05344
-1.041478,-7.606379,-1.443704,-58.12214,13.16031,-2.984733
-0.4429273,-10.95347,-1.66397,7.931298,44.67176,12.29008
-0.5746084,-11.42513,0.07182605,4.679389,40.93893,-7.572519
-1.429338,-10.39562,-8.468291,-21.33588,8.465649,3.282443
-0.7781156,-8.987833,-1.92015,38.24427,31.83969,2.977099
-2.954445,-9.009381,-5.336676,2.870229,-3.145038,-12.0458
3.045424,-6.574478,-0.5530606,-13.9313,-31.51908,-21.24427
-2.161964,-10.52252,-1.807622,-3.091603,-54.70992,-1.229008
2.015918,-10.25197,-3.478775,-19.13741,-59.64122,-22.0687
0.1604115,-11.19529,-7.292738,15.87023,39.58015,21.73282
-0.5793968,-6.495469,-1.441309,16.13741,-69.19084,-2.122137
-3.473987,-8.585608,-3.809175,-47.09924,-1.48855,16.51145
0.5363012,-11.16656,-6.768408,68.68702,8.687023,23.33588
-2.248155,-3.677494,1.077391,-21.50382,-10.05344,0.1984733
-1.577779,-11.9758,-3.332729,-7.274809,2.938931,-22.39695
-0.8810662,-9.576807,-1.005565,13.70992,38.0458,-11.06107
-2.106898,-13.27345,-3.41892,-6.541985,0.7862596,8.992367
1.340753,-8.329428,-8.949526,39.43512,-0.3740458,6.08397
-2.547431,-6.749255,2.734178,-7.328244,-15.65649,-8.847328
0.296881,-10.57998,-5.166687,8.21374,-38.00763,-27.0687
3.459621,-5.940014,-0.6224924,-8.473283,7.694656,7.236641
-2.403779,-11.39161,-0.4189853,-41.67176,-35.64122,18.99237
2.549825,-13.64216,-6.43322,-31.71756,3.290076,-29.94657
-3.04303,-8.001422,-4.548983,57.83969,4.687023,2.175573
1.673547,-6.476315,-2.382231,-70.90839,29.25191,-2.717557
-2.298434,-11.17374,-5.74369,91.74046,29.85496,32.43512
-5.116409,-5.035006,3.864242,-89.80916,-23.77863,-20.09924
-0.1628057,-11.45625,-3.560178,19.16031,13.07634,1.145038
-1.482011,-10.79067,-0.3734955,-36.32824,3.992366,-17.99237
-2.173935,-10.30464,-6.955156,38.41221,-18.12214,19.31298
-1.606509,-8.025364,-1.290475,11.20611,-10.10687,-8.083969
-2.597709,-9.32781,-6.526594,-5.167939,-31.13741,-35.63359
4.654328,-6.91206,-0.1556231,17.81679,-49.17557,-10.48855
-3.244143,-10.75236,-0.9361328,-28.74809,-17.71756,4.80916
0.213084,-11.92552,-2.497152,10.50382,-27.50382,-2.938931
-0.002394202,-8.463503,-6.777985,-39.01527,14.36641,8.847328
-0.3351882,-9.43076,-2.992752,95.70229,-38.35115,-9.770992
-0.5171475,-8.693346,-2.013524,-69.70992,26.45038,20.72519
-4.161122,-8.075643,-1.474828,39.37405,-3.824427,13.12977
-1.534683,-9.074024,-1.106121,-48.55725,-18.07634,-30.59542
-1.563414,-10.18493,-2.169147,7.175572,-0.7099237,-9.816793
-0.6655881,-11.78666,-6.100426,2.396947,-52.53435,11.56489
0.03112462,-6.394913,-5.166687,55.58015,22.9542,2.496183
-3.529053,-9.507375,-4.249708,-55.41985,-97.69466,-39.83206
5.439626,-8.494628,-1.010353,50.17557,-40.15267,-26.63359
-2.389413,-8.121132,-0.5889736,-50.44275,-14.08397,22.58015
0.04548983,-12.95981,-3.739743,5.183206,-36.89313,-23.76336
1.249773,-9.526528,-4.848258,-22.14504,12.64886,18.0
-2.913743,-8.288726,-3.857059,47.61069,-61.72519,-20.94657
0.6464345,-10.6925,-2.300828,-80.70992,4.572519,-11.03817
-1.711854,-8.516175,-2.975993,91.38931,-9.526717,14.44275
-2.351106,-7.943961,-0.5171475,-88.34351,-51.89313,-26.14504
0.3711013,-11.60709,-3.514688,43.45038,8.419847,-8.549619
-2.801216,-12.19846,-6.505046,-70.80916,-67.45802,12.63359
0.9217676,-7.905654,-5.688623,94.28244,-22.96183,32.58015
-2.418144,-10.08198,-4.829105,-130.7557,-22.69466,3.984733
-1.740585,-11.31979,-4.84347,132.1069,-77.38168,-98.06107
0.01915361,-6.332664,-0.6464345,-85.55725,-7.992366,18.25954
-0.9074024,-10.87925,-2.667141,29.41221,-29.71756,-11.77099
-0.7805098,-11.98059,-0.5003881,0.9389313,-32.03817,-16.70992
-1.218649,-10.83376,-7.156269,-39.29771,8.259542,-7.969466
-1.055843,-5.640739,-1.857901,65.55725,-78.51145,-8.572519
0.04788403,-13.71878,-3.454833,-79.44275,-4.496183,-26.52672
-3.098097,-6.900089,-1.757344,86.51908,-16.74046,24.38168
-1.661576,-9.208099,-2.044648,-81.61832,-35.08397,-34.72519
0.5075707,-10.09156,-2.779668,33.82443,11.21374,-2.679389
-0.902614,-13.25669,-0.6775591,-3.519084,21.51145,-6.030534
-4.654328,-8.966286,-6.260838,6.763359,-15.07634,-10.25191
0.7757214,-9.006987,-0.3687071,-13.1374,-54.85496,-23.54198
-2.540248,-10.05325,-6.330269,24.83969,-34.31298,-28.23664
4.252102,-6.198588,-0.237026,-17.41985,-30.96183,-5.427481
-0.8954314,-10.2831,-2.20506,-11.05344,4.801527,14.0
-0.8762778,-10.20648,-2.387019,-11.39695,-34.01527,3.603053
0.8092402,-10.36929,-4.299986,-6.748092,-21.18321,14.07634
-2.798822,-8.420407,-4.175488,42.32061,-57.13741,-3.381679
0.5530606,-8.772355,-1.805228,-77.56489,6.580153,-17.30534
-2.32477,-9.512163,-4.955997,84.56489,-6.137404,22.12214
-1.577779,-6.813898,-0.2825158,-79.0,-44.72519,-23.9771
-0.03112462,-11.66455,-4.039018,27.16794,25.93893,-1.358779
-1.364695,-9.318233,-0.6081272,-20.37405,15.45802,-2.603053
-1.838747,-10.45069,-2.789245,32.38931,6.839694,-3.389313
-0.2585738,-6.890512,-6.363788,-26.10687,-9.0,20.59542
-2.219425,-11.08994,-6.435614,47.20611,3.778626,-23.60305
2.832341,-5.133168,1.00317,-18.53435,-35.09924,-22.22137
-1.09415,-11.63582,-4.72376,-4.145038,9.824428,3.137405
1.893814,-6.993463,1.309628,27.9542,-33.67939,7.40458
0.6320692,-11.05163,-2.149993,-74.69466,-3.244275,14.26718
0.4596867,-12.141,-4.544195,59.52672,15.74809,27.46565
-1.450886,-6.787562,-4.151546,22.75573,-2.427481,5.229008
0.9600749,-9.155427,-2.451663,-70.46565,20.96183,1.534351
-2.70066,-11.1091,-4.220978,49.09924,25.38168,7.709924
-2.420538,-7.704541,-0.1005565,-5.496183,-5.374046,-7.259542
-0.04788403,-8.690952,-2.602497,-53.38168,50.61069,16.13741
-1.309628,-12.03805,-0.6248866,75.19847,-17.66412,-12.23664
-0.05506664,-9.0429,-8.128315,-50.1832,31.32825,17.90076
-3.96001,-9.258378,-0.02394202,58.57252,-21.45802,3.167939
-1.307234,-10.21606,-7.034164,7.076336,-18.74809,-29.0458
6.560112,-5.307945,-0.5650316,-13.80153,5.679389,-4.343512
-2.595315,-12.44745,-2.973598,-12.27481,18.19847,-0.9007633
-0.3615245,-7.165846,-2.061408,-13.94656,-30.03053,23.83206
1.364695,-13.51527,-6.370971,8.297709,18.77863,24.52672
-1.90339,-7.735666,-2.209848,63.98473,-46.58779,-15.00763
-0.4141969,-5.676652,-2.533065,-104.1298,32.87786,19.82443
-1.041478,-11.36049,-6.497863,105.542,-3.992366,18.92366
-2.885013,-4.139575,2.020706,-88.09161,-19.56489,-7.419847
0.0,-12.56477,-4.644751,16.37405,15.27481,-8.114504
-1.146823,-9.818622,-1.407791,-23.99237,19.18321,-14.64886
-1.489193,-12.01171,-4.594473,13.50382,-21.67175,9.458015
0.4932055,-6.019023,-5.81791,22.83206,43.74809,10.73282
-2.719813,-10.96784,-3.672705,-30.28244,-36.08397,-7.312977
0.890643,-8.147469,-1.678335,46.45802,-44.74046,-31.48855
0.2154782,-8.51857,-1.517924,-25.45038,3.564885,21.33588
-1.240196,-11.27669,-2.267309,11.0916,-18.79389,-9.984733
0.3687071,-11.68131,-3.215413,7.748092,-11.25191,7.793893
0.1580173,-9.006987,-5.492299,1.427481,11.82443,7.648855
-0.9169792,-5.102044,-2.3535,-18.9542,19.96183,3.442748
-1.314417,-13.07474,-5.243302,51.23664,-21.25954,0.1374046
-2.195483,-4.182671,0.7637503,-27.35114,-0.389313,1.854962
-1.762132,-11.53048,-2.880225,-8.083969,-14.83206,-10.71756
-0.8810662,-8.075643,-1.146823,-25.42748,3.755725,-13.96183
-0.4740519,-13.8313,-2.911349,-26.58015,-20.41221,12.1374
-3.004723,-8.805874,-4.486734,34.19847,-34.45038,-12.19847
0.4932055,-6.706159,-2.06859,-21.32825,-34.17557,-3.274809
-2.930503,-11.88721,-5.729325,32.29771,-22.45038,-40.68702
2.80361,-5.240908,0.01436521,-6.427481,-19.28244,-8.297709
-0.9959879,-10.49139,-2.322376,-28.12214,-6.763359,5.641222
-1.431733,-9.557653,-2.121263,-3.473282,-46.14504,-0.9541985
0.9121908,-11.46583,-5.420473,-7.145038,-9.778625,7.076336
-2.217031,-7.81228,-3.552995,56.28244,-67.99236,-18.19847
0.3519476,-8.00621,-2.712631,-90.62595,-4.931298,-2.015267
-1.659182,-10.19212,-4.929661,90.58015,-43.9313,6.145038
-1.70946,-5.736507,-0.1364695,-82.74809,-46.05344,-20.40458
-0.260968,-11.79144,-3.378219,29.41985,-7.80916,-9.488549
-1.704672,-11.47541,-1.130063,-30.98473,3.900763,-17.93893
-2.267309,-10.21366,-7.424419,41.53435,-21.67175,4.526718
-0.1125275,-5.516241,-0.05267244,-7.38168,-26.26718,-4.89313
-1.872266,-11.95425,-7.984663,11.05344,-16.62595,-29.9771
3.670311,-5.303157,0.3615245,31.51908,-17.45038,3.145038
-1.786075,-10.47463,-1.331176,-37.86259,-6.549618,9.938931
0.7158663,-10.64701,-2.913743,9.442748,-6.030534,0.4045802
-2.193089,-11.99974,-2.183512,1.793893,-42.84733,4.351145
0.2202666,-9.440337,-4.055778,-0.06870229,-25.16031,-20.05343
-2.008735,-5.542577,-2.782062,-12.96183,-18.37405,12.51908
1.520318,-12.13381,-6.121974,18.36641,-10.66412,-10.60305
-2.679112,-5.74369,0.4285621,-14.71756,-7.419847,10.38168
-1.790863,-11.13064,-2.549825,-15.09924,-25.68702,-14.54198
-0.3303998,-8.980651,-1.793257,-13.00763,19.06107,-12.48855
-0.8116343,-13.45541,-1.980005,20.0229,-17.39695,7.938931
-2.70066,-8.42759,-6.981492,-13.42748,-9.503817,-18.49618
0.5985504,-7.43639,-0.5051765,14.08397,-45.70992,-0.3053435
-1.252167,-11.37485,-6.189012,-4.778626,-11.74046,-30.91603
2.636016,-6.007052,-0.4357447,8.366412,-4.984733,0.3587786
-1.216254,-11.01093,-2.157176,-9.862596,8.061069,10.58779
-0.7541735,-8.729259,-1.154005,-22.54962,-13.51908,14.15267
-2.511518,-13.23754,-1.594538,25.07634,-50.05344,-6.557252
1.101333,-9.639056,-5.612009,-28.62595,-1.641221,4.038168
-2.698265,-5.925649,-3.229778,33.14504,-22.41985,-2.274809
0.7757214,-12.66054,-4.742914,-49.48855,-11.05344,-20.50382
-2.128445,-7.043741,-1.54426,56.54962,18.21374,11.63359
-0.6703765,-8.959103,-2.305616,-58.00763,9.656488,-9.160305
-0.8595184,-9.876082,-2.480393,13.73282,26.32061,-8.633588
0.09576806,-12.59111,-1.197101,15.80153,15.9542,-14.93893
-3.541024,-10.1562,-7.374141,-31.9084,3.954198,-0.6030535
-1.221043,-8.690952,-0.3280056,36.59542,-28.00763,-7.839694
-1.740585,-8.942344,-4.738125,-37.83206,-33.83969,-24.0687
1.862689,-8.286332,-1.582567,5.10687,-50.64122,-28.0687
-1.900996,-9.691729,-2.27928,-21.08397,-78.92367,-1.251908
2.41575,-11.90397,-4.118027,5.21374,-81.32061,-20.54198
-4.256891,-9.895236,-4.074931,61.25191,-60.67939,-14.01527
1.936909,-4.618415,-2.987964,-76.86259,-12.74809,1.641221
-3.950433,-12.47858,-5.851429,68.34351,-62.9542,-26.25191
-1.000776,-4.69503,-0.09816227,-41.29008,-66.40458,-22.21374
0.05027823,-11.8513,-5.063736,-20.08397,12.39695,-13.26718
-0.1628057,-10.86489,-3.550601,-2.129771,-15.81679,-3.091603
0.7613561,-8.042124,-7.046135,13.47328,13.78626,-9.389313
-2.851494,-9.555259,-4.316746,30.14504,-29.66412,-6.572519
2.619257,-6.323087,0.1771709,-33.03053,-69.0229,-44.26717
-0.7589619,-11.19529,-4.046201,-2.778626,9.374045,6.274809
-0.782904,-7.826645,-0.6799533,-4.206107,-70.09924,-0.648855
-0.3423708,-11.27669,-2.037466,11.29771,-84.0,3.580153
2.837129,-10.63504,-10.31422,-126.374,95.20611,7.10687
-3.356671,-7.57286,-5.080496,163.5954,-70.79389,20.38931
-0.9217676,-8.236053,-0.05506664,-105.0687,7.91603,-6.282443
-2.674323,-9.543288,-5.398925,106.1832,-5.08397,27.28244
-2.822764,-6.842628,-1.206678,-65.68702,-58.15267,-28.61069
-0.344765,-10.34295,-2.643199,15.90076,-22.37405,-9.099236
-0.03591302,-8.645462,-1.896208,-29.00763,31.67175,-20.39695
-1.30484,-13.7068,-9.085996,-23.84733,-19.10687,24.58015
-0.2705448,-5.556942,-2.92332,121.6718,44.57252,-23.41985
-1.055843,-10.77391,-4.568137,-99.26717,-31.54962,-10.67939
2.882619,-8.480263,-1.759738,97.1145,-12.27481,-5.793893
-0.7398083,-7.546524,-0.3615245,-67.37405,14.22901,16.39695
-0.1819593,-11.22402,-4.163517,23.92366,-18.84733,10.94656
-1.144428,-12.95263,-3.421314,-16.0687,1.419847,-16.9084
0.7230489,-7.146692,-2.47321,17.72519,-40.34351,-5.709924
-2.501941,-7.046135,-3.746926,-32.19847,37.38168,13.18321
1.558625,-10.24958,-5.659893,55.13741,-24.70229,16.22901
-1.972822,-5.389348,0.8283938,-40.09924,-6.89313,14.20611
-1.252167,-10.76672,-2.985569,-27.10687,-0.9847328,-14.54198
-0.8810662,-10.24,-2.880225,2.419847,20.90076,-11.1374
-0.1508347,-11.1905,-5.44202,-7.244275,2.557252,-8.541985
-0.7182605,-5.973533,-5.501875,60.64122,60.9771,12.01527
0.225055,-11.53526,-4.922479,-59.90076,-25.45802,-16.23664
1.857901,-7.627927,-0.8164227,85.32061,11.47328,-8.908397
0.1699883,-9.495404,-2.439692,-67.66412,14.0458,4.198473
1.209072,-8.001422,-1.491588,29.48092,-21.91603,16.35878
1.393425,-11.35809,-2.944868,-42.19847,-16.40458,-1.442748
-0.1675941,-9.828198,0.296881,38.85496,-70.64122,-2.587786
4.912902,-10.40041,-5.923255,-96.60305,71.38168,9.908397
-3.624821,-9.394848,-3.677494,65.9771,-17.93893,20.13741
-2.097321,-8.386889,-2.698265,-64.89313,19.45038,-3.007634
-0.2585738,-8.801085,-5.997475,78.33588,40.39695,38.65649
-2.408567,-9.030929,-0.3711013,-15.87786,-2.633588,-7.152672
1.175553,-9.682152,-4.31914,6.152672,53.39695,24.26718
-1.805228,-8.702923,-1.156399,-2.656489,44.45038,4.526718
-1.623269,-9.272743,-1.070208,-20.32825,57.35115,11.25191
-1.989582,-11.66455,-5.451597,-53.82443,23.18321,9.297709
4.249708,-9.02614,-5.29358,138.4427,90.03817,15.60305
-5.521029,-7.553706,2.015918,-139.458,-38.29008,-16.32825
3.347094,-9.916783,-4.946421,107.4504,47.0,3.977099
2.281674,-6.40449,-1.283292,-71.83206,56.1145,27.29008
-0.5530606,-10.83855,-2.492364,16.45802,14.63359,11.77099
0.8499416,-10.60153,-1.556231,-16.92366,6.40458,14.73282
1.039083,-11.25993,-4.041412,-20.37405,6.442748,-7.473282
0.4261679,-8.841787,-4.194642,40.15267,18.19084,33.31298
-1.946486,-5.997475,-3.734955,-67.47328,74.64122,9.465649
0.9481038,-11.6047,-6.500257,74.17558,46.47328,37.33588
-1.786075,-6.138733,-0.1244985,-18.48855,45.68702,16.16794
-1.702277,-10.91517,-2.755726,-8.427481,27.66412,12.68702
-1.256956,-7.841011,-0.6895301,-0.7022901,4.450382,-5.038168
-0.4094085,-13.13938,-2.839523,21.40458,38.16031,-8.519084
-0.9313444,-9.284714,-3.667917,-75.58015,-36.48092,7.664122
-0.5123591,-9.143456,-5.793968,101.2824,61.10687,1.473282
-2.365471,-6.856994,-2.406173,-75.33588,-35.62595,-2.854962
3.066972,-10.21606,-2.959233,60.82443,-19.15267,-16.77099
0.09337386,-7.836222,-1.42455,-40.39695,15.84733,23.54198
-2.664747,-10.90319,-1.608904,11.9084,-49.71756,-0.3816794
2.262521,-12.92151,-1.170765,14.91603,-31.57252,-19.32825
-2.224213,-10.06283,-7.891289,-26.10687,32.29008,12.87023
-2.413355,-4.338294,-0.782904,54.54962,-55.26717,-7.938931
-0.7589619,-14.87757,-5.559336,-73.01527,-15.81679,-18.30534
-2.387019,-6.361394,-0.2633622,74.36641,-7.282443,3.78626
-0.6464345,-9.124303,-2.413355,-75.20611,2.916031,-16.9313
-0.6775591,-10.86968,-3.907337,34.1832,26.44275,-7.763359
2.942474,-13.29979,-5.346252,-43.82443,31.41221,-14.18321
-2.667141,-6.445191,-4.367024,102.9924,103.2519,34.71756
-1.175553,-12.06917,-3.854665,-111.4504,-44.1145,-53.94656
5.8634,-7.606379,-1.177947,114.9084,65.45038,7.015267
-4.936844,-7.630321,-1.541866,-117.9847,-13.19847,22.75573
4.718972,-12.64617,-3.545813,37.0,-10.96947,-36.07634
0.02633622,-8.269572,0.6703765,-9.519084,-7.274809,14.9084
1.82917,-9.89763,-1.731008,-3.908397,-9.793893,19.61069
1.197101,-11.38682,-8.2169,-85.47328,10.64122,7.450382
-2.272097,-8.286332,-2.339135,128.3053,9.473283,9.076336
-0.213084,-10.17057,-4.989516,-131.9924,25.0229,-5.068702
0.3926491,-9.167398,-2.456451,101.1069,18.36641,12.32061
-1.137246,-8.212111,-2.571373,-87.75572,48.40458,19.62595
0.01675941,-9.114726,-2.41575,22.78626,45.89313,3.717557
-1.223437,-11.33176,-2.722207,-7.251908,61.74809,20.21374
0.2753332,-11.15937,-4.268862,-8.748092,36.37405,2.610687
1.122881,-5.861006,-4.407725,34.45038,108.5115,18.58779
-1.017536,-10.12508,-3.040636,-48.0458,47.9084,23.07634
0.4908113,-10.00537,-3.813963,87.12977,32.69466,-5.801527
2.296039,-5.877765,-1.046266,-72.87023,44.29008,4.59542
-1.860295,-11.95664,-3.198653,24.78626,1.916031,17.28244
-2.382231,-8.003817,1.654393,-22.19084,-30.29008,5.450382
1.228225,-13.45302,-2.736573,14.33588,-36.70992,-10.42748
3.301604,-9.306262,-4.560954,1.984733,39.80153,14.32824
-1.666364,-6.34224,-3.399766,13.49618,13.62595,19.52672
-2.722207,-12.09072,-2.533065,-66.74809,-29.16031,-13.25954
0.8523358,-8.552089,-3.948039,77.03053,13.61069,21.26718
-3.385401,-8.169016,-0.926556,-61.53435,0.6717557,-6.687023
-0.1867477,-9.718064,-2.619257,35.23664,1.152672,-7.839694
0.4668693,-9.775525,-2.53546,-32.99237,33.94656,-6.931298
-0.2825158,-11.86088,-5.932832,27.99237,3.610687,26.77099
-1.836353,-5.614403,-3.648763,47.36641,50.8855,-7.992366
0.5889736,-11.02769,-1.936909,-96.46565,-39.14504,5.70229
-1.125275,-10.32619,-3.98874,150.2901,-12.62595,-25.60305
2.554613,-5.231331,0.4548983,-113.2595,4.656488,0.5419847
-0.6320692,-11.75074,-3.476381,59.9084,1.984733,13.98473
-1.594538,-7.955932,0.1101333,-66.19084,-27.61832,11.38931
-0.6224924,-13.72356,-2.432509,7.10687,-60.67939,-14.1374
2.360683,-9.097966,-6.038177,10.38168,54.78626,12.0
-3.284845,-5.808333,-2.463634,-10.0916,-2.740458,4.541985
1.261744,-12.06199,-5.710171,23.62595,18.47328,11.35114
-2.425326,-6.287174,-1.058237,5.305344,32.43512,19.07634
-1.192312,-10.4483,-3.816358,-12.77863,12.47328,-1.129771
-0.7469909,-8.492233,-1.881843,-1.137405,32.32061,-2.183206
-1.074997,-9.739613,-1.61848,-2.801527,42.27481,0.8015267
-2.346318,-10.06044,-1.893814,-0.1755725,34.9542,-0.6946565
0.4453215,-12.12424,-5.133168,-39.54962,5.70229,-13.32824
2.461239,-7.848193,-7.479486,67.24428,90.99236,33.0458
-1.273715,-7.680599,-0.3998317,-58.63359,-38.38931,-19.55725
-0.1843535,-12.20085,-3.184288,90.68702,-49.05344,-37.79389
2.336741,-5.307945,-0.2657564,-39.27481,21.12977,3.305344
-0.4094085,-11.83214,-3.397372,-4.923664,-4.954198,11.66412
2.197877,-8.106767,-0.1292869,-9.038168,-1.541985,12.30534
0.0,-9.931149,-3.028665,-37.45802,1.885496,21.54962
0.2537854,-11.76271,-3.107674,28.0,-14.98473,4.580153
-0.06943185,-9.181764,-4.99191,-12.25954,3.374046,-10.98473
-3.8403,-5.592855,-1.731008,-9.389313,-32.38168,7.694656
2.568978,-13.1322,-6.303933,15.66412,11.63359,-6.931298
-2.075773,-5.406107,-0.06703765,-12.20611,23.9771,18.26718
-1.154005,-12.5097,-3.632004,17.70992,12.16794,-4.847328
-0.5243302,-6.959944,-0.6751649,-21.81679,25.99237,-2.900763
-1.374272,-12.967,-3.191471,7.679389,19.96947,-2.0
-1.16837,-9.380483,-1.261744,-2.534351,-25.55725,-1.900763
-0.5913678,-7.096414,-6.133945,31.10687,27.57252,7.122138
-1.118092,-10.42196,-3.150769,-29.15267,-40.28244,5.374046
2.11408,-8.334216,-2.674323,60.0229,5.89313,-21.77863
1.51553,-8.408437,-2.138022,-52.07634,29.22901,6.343512
-0.7158663,-10.34056,-2.027889,30.12977,20.83206,2.641221
-0.4668693,-8.784326,-0.5506664,-58.0916,-14.72519,9.931297
-0.7302315,-12.71321,-2.904167,30.67939,-52.87786,-16.23664
2.743755,-10.36211,-5.408502,-47.67176,26.0458,0.740458
-2.659958,-7.101202,-3.095703,42.66412,10.48092,6.21374
1.666364,-10.26873,-4.711789,-18.54962,9.167939,23.51145
-2.37026,-7.187394,-0.85473,29.26718,15.99237,14.79389
-0.9959879,-9.73243,-2.590526,-21.30534,22.16794,-3.854962
-0.6272808,-9.062054,-1.307234,-27.03817,7.152672,-5.564886
0.1508347,-12.83053,-2.712631,48.98473,43.03053,13.66412
2.738967,-9.136273,-10.66377,-40.90076,45.98473,68.49619
-1.594538,-5.760449,-1.613692,65.90076,79.12214,20.37405
-0.3639187,-13.32373,-6.634333,-6.312977,35.74809,-9.045801
0.1723825,-7.984663,-0.56982,39.69466,24.61832,-54.61832
0.6009446,-8.925584,-1.630451,-55.9313,51.40458,23.83206
-1.66397,-10.14423,-2.08535,37.96183,12.48092,9.954199
0.213084,-10.80982,-0.4525041,-9.908397,-3.610687,-7.503817
1.118092,-11.34373,-4.668694,-17.31298,-0.5038168,-17.23664
-0.05027823,-7.671022,-3.394978,55.58015,-13.68702,23.16794
-2.913743,-8.803479,-2.140416,-76.9542,-7.08397,-27.29008
1.740585,-10.52491,-4.99191,59.65649,-0.03816794,33.99237
-2.980781,-7.074866,0.2705448,-30.77863,8.725191,2.374046
-0.8978256,-10.04368,-2.135628,-1.618321,6.221374,-3.549618
-0.1340753,-9.768343,-2.846706,-36.48855,48.1145,2.503817
-0.9696517,-12.06438,-5.370194,9.312977,19.74046,-4.167939
-0.6272808,-6.112397,-4.692636,59.83969,64.49619,21.91603
-1.177947,-10.3214,-2.240973,-67.15267,-35.86259,-5.908397
1.951274,-9.543288,-2.645593,99.48092,17.13741,-6.580153
1.154005,-6.754043,-0.9648633,-68.10687,31.65649,8.129771
-1.704672,-11.86088,-2.104503,43.9313,-0.07633588,14.77099
-0.3399766,-8.049306,-1.060631,-37.62595,-4.870229,-0.648855
0.6775591,-13.0484,-4.953603,7.89313,-3.824427,-11.12977
1.096544,-9.44752,-3.301604,2.21374,5.725191,-9.320611
-3.035848,-6.361394,-2.588132,-21.98473,-19.06107,4.145038
1.122881,-12.89278,-5.370194,-12.41221,4.755725,-25.05343
-0.1316811,-7.314286,-1.745373,29.62595,33.0,29.65649
-1.221043,-10.41478,-2.571373,-22.71756,28.48092,16.74046
-0.902614,-8.50181,-0.9696517,0.7938931,46.86259,10.96947
-0.3711013,-11.14261,-2.703054,-28.25191,39.26717,30.61069
-1.489193,-10.90798,-5.183447,72.60305,35.22901,-11.0
0.03351882,-4.422091,-1.838747,-30.9771,57.45038,-6.175572
-2.954445,-13.10825,-5.884948,-0.4961832,-24.9313,9.114504
4.857835,-5.93762,-1.45328,53.19847,22.42748,-29.45038
0.7661445,-9.196129,-2.430115,-85.33588,45.16031,9.778625
-1.450886,-11.13064,-2.243367,65.72519,-6.48855,-8.938931
-0.5075707,-6.967127,0.4381389,-49.84733,-38.46565,16.87786
1.053449,-14.07072,-2.147599,8.671756,-29.32825,1.709924
1.355118,-10.24239,-5.317522,17.86259,20.41221,7.458015
0.5841852,-5.74369,-1.228225,1.19084,-8.59542,5.664122
-3.394978,-11.34612,-6.26802,-1.458015,30.51145,9.938931
2.48997,-8.228871,-1.855506,20.31298,17.01527,12.48855
-3.201048,-9.069236,-1.187524,-42.49618,16.92366,16.0229
0.2896984,-10.04607,-2.870648,26.92366,32.64885,4.70229
-1.209072,-8.762778,-0.9792285,-41.54962,39.67939,-5.671756
-0.6536171,-13.49372,-3.58412,25.13741,24.70992,1.465649
-2.176329,-8.798691,-2.935291,-20.61832,11.57252,-1.427481
1.438915,-6.969521,-3.378219,19.35878,19.46565,-2.427481
-0.9768343,-9.842564,-2.513912,-20.87023,1.091603,24.56489
-0.5099649,-10.02931,-4.51307,39.84733,-5.061069,-14.53435
1.407791,-7.659051,-1.762132,-35.83206,-6.160306,-7.885496
-0.6799533,-10.05086,-2.312799,25.73282,10.12214,-1.877863
-0.8499416,-8.961497,-0.7637503,0.5419847,-49.12214,3.687023
0.5434838,-10.63504,-1.735796,-12.74046,-53.64885,5.80916
0.5075707,-11.1881,-4.029441,-17.19084,-20.48855,-15.0458
0.9768343,-9.818622,-2.506729,33.12214,26.33588,7.022901
-0.8834604,-6.938396,-2.96881,-39.0458,-2.145038,6.343512
-1.575385,-11.4778,-4.829105,15.45802,-8.38168,-0.870229
2.145205,-7.855376,-3.533842,17.53435,52.8855,22.66412
-3.576937,-9.68694,-1.769315,-4.801527,50.66412,21.22137
-2.688689,-9.449914,-1.936909,6.78626,-6.0,9.549619
1.211466,-9.595961,-3.112462,7.671756,51.33588,10.23664
-2.410961,-9.069236,-1.182736,5.358778,67.50381,3.832061
-2.25055,-11.04685,-1.326388,-11.43511,48.98473,-4.587786
-2.686294,-9.483433,-0.6320692,17.70992,61.58779,2.900763
-1.630451,-11.31979,-4.898537,-97.25191,-62.07634,-14.45038
1.015141,-8.734048,-4.618415,84.90839,43.48855,-13.0687
1.39582,-7.642292,-1.733402,-94.41222,-25.43511,-12.68702
-0.5985504,-11.59272,-5.741296,70.69466,28.63359,-19.32061
2.389413,-6.277597,-1.438915,-38.96947,22.64886,2.648855
0.2418144,-10.09156,-3.459621,-0.8091603,18.90076,13.87023
-0.4165911,-9.112331,-1.865083,5.450382,-16.47328,23.87786
0.6775591,-10.79306,-2.121263,24.64886,-16.16794,20.27481
0.9074024,-10.46266,-4.292804,33.20611,19.84733,14.61832
-0.6033388,-6.265626,-3.078943,15.16031,-20.19847,-2.465649
0.3806781,-13.15135,-3.58412,-20.0687,40.9542,0.9083969
-1.391031,-8.346188,-1.867477,44.19847,59.41221,26.47328
-1.510741,-9.160215,-2.743755,-56.8168,42.20611,14.73282
-2.15957,-10.35013,-2.298434,40.43512,38.45802,3.198473
-1.752556,-8.827422,0.09337386,-16.48092,-11.77863,-12.73282
-0.03591302,-9.483433,-1.908179,-4.061069,37.37405,7.038168
-1.084573,-10.92474,-3.145981,-34.45802,19.77099,7.465649
-0.7637503,-10.63504,-3.524265,37.1832,25.86259,-2.984733
2.351106,-5.990293,-5.226542,-16.09924,86.23664,16.16794
-3.591303,-12.7994,-2.41575,0.9923664,5.236641,-4.870229
0.7852982,-7.654263,-1.996764,55.29771,13.87786,-13.20611
0.2585738,-8.78672,-1.75495,-62.1832,24.98473,10.14504
-0.8092402,-10.38605,-1.817199,49.90076,-19.36641,13.75572
-0.7661445,-8.224083,-0.1723825,-29.76336,-50.30534,13.77863
1.335965,-12.48097,-0.9241618,-6.824428,-40.92366,-19.09924
0.629675,-12.0572,-4.76925,-7.473282,32.60305,-1.450382
-0.3711013,-6.117185,-2.782062,27.19084,-12.35878,21.99237
-5.334281,-10.35492,-3.387795,-51.86259,-0.09923664,-5.541985
0.8188169,-9.220071,-3.052607,42.46565,0.6946565,23.37405
-3.009511,-7.726089,-2.231396,-38.29771,20.80916,20.03817
-0.9624691,-11.066,-3.981557,3.885496,29.27481,-1.40458
-2.576161,-9.85214,-2.197877,38.9771,38.45038,15.85496
-1.699883,-9.279925,-1.807622,-1.557252,29.0229,-3.633588
-2.006341,-9.289502,-1.486799,20.8855,40.61069,0.7709923
-2.195483,-9.088389,-2.219425,-19.09924,13.41985,-7.145038
-1.37906,-9.100361,-3.205836,-11.93893,-6.389313,-5.954198
-0.6272808,-9.497798,-1.261744,-3.664122,17.91603,-7.847328
-1.786075,-9.955091,-1.972822,-22.00763,4.603054,-7.91603
-1.683124,-10.78588,-2.794033,-14.76336,-19.40458,-22.43511
-1.472434,-10.08677,-2.952051,8.282443,-10.28244,-19.0
1.242591,-9.188946,-4.388572,-12.54962,-13.48855,-18.81679
0.9720459,-7.797915,-3.181894,20.03817,29.08397,5.068702
-0.794875,-10.35253,-4.082114,-4.70229,-4.38168,-10.74809
0.5770026,-9.816227,-1.877054,32.9542,-17.25191,-12.70229
0.8451532,-8.403648,-1.630451,-5.312977,-9.488549,-4.48855
0.1364695,-8.408437,-1.752556,-28.29008,-15.32061,-1.801527
0.533907,-9.531317,-1.010353,0.7633588,-24.17557,12.12214
-0.01197101,-10.39084,-0.9337386,-27.13741,-37.68702,14.77863
0.7541735,-10.38365,-0.9002198,37.91603,-18.79389,1.656489
3.660734,-10.12508,-10.19691,-65.25954,75.92367,-20.45802
-3.969586,-10.64223,-0.9959879,88.74046,-18.9084,9.610687
2.15957,-10.82897,-5.025429,-27.96947,68.47328,12.54962
-1.769315,-6.23929,-1.594538,2.900763,65.59542,37.58015
-0.308852,-10.39323,-3.160346,11.09924,39.35878,20.34351
-1.563414,-8.944737,-0.3711013,-7.503817,32.73283,-8.61832
-0.4189853,-10.79067,-2.118869,12.21374,56.70992,17.23664
-0.1412579,-11.30781,-3.955221,-13.36641,-4.778626,4.870229
0.7326257,-7.132327,-4.939238,23.90076,66.80153,23.54198
-2.815581,-12.2655,-3.359065,-47.76336,-39.47328,-12.57252
2.372654,-8.60955,-2.212242,76.37405,-9.496183,-32.50382
-0.3878607,-8.094796,-0.6488287,-71.83206,3.824427,1.839695
1.821988,-10.24479,-3.485958,46.09924,1.717557,4.244275
-0.3112462,-7.448361,0.9433154,-43.17557,-35.48092,10.20611
-0.04070143,-10.99178,-2.920926,-19.22901,-56.71756,14.62595
3.196259,-12.97897,-2.257732,-17.49618,-24.96947,-13.70229
-4.553771,-10.88644,-5.183447,20.77863,9.328244,-2.335878
-3.093309,-4.865018,-2.197877,-15.75572,-28.00763,-4.885496
0.6751649,-12.64139,-5.051765,-15.25191,-12.16031,-6.442748
-2.013524,-7.007828,-0.9672575,40.16031,12.09924,10.33588
-1.726219,-10.20169,-3.093309,-35.35878,6.343512,8.083969
-2.274492,-9.440337,-2.011129,-4.48855,1.862595,-2.465649
-1.517924,-8.724471,-2.298434,-30.19847,-9.900764,-4.061069
0.2657564,-10.27352,-2.274492,4.290076,36.86259,-1.778626
-2.142811,-10.1562,-1.029507,-7.801527,26.36641,10.58779
-5.851429,-11.83933,-8.767567,-53.0,-58.68702,-13.38931
3.086126,-4.398149,-3.821146,59.83206,1.129771,-10.41985
-3.215413,-12.95024,-4.299986,-70.20611,-23.80153,-16.61069
-0.3687071,-7.860164,-1.972822,37.80153,-19.31298,-42.19847
0.1843535,-9.167398,-2.221819,-22.74046,-28.70992,-3.427481
-0.3423708,-9.296685,-1.927332,59.54198,-81.29771,2.396947
-2.401384,-14.80574,-6.275203,17.96183,15.68702,-47.91603
0.4692635,-2.13084,-1.04866,51.12977,-27.21374,41.63359
-4.647145,-16.19438,-3.768473,-27.20611,-46.99237,-36.82443
-1.108515,-6.299145,-0.914585,16.52672,-14.10687,0.3816794
0.5075707,-10.66138,-2.126051,-37.93893,14.03053,-12.8626
-1.915361,-13.96059,-2.89459,41.58015,15.16794,1.778626
-1.482011,-7.036559,-6.76362,-2.687023,22.86259,2.824427
-2.011129,-9.873688,0.01436521,-26.83206,-33.52672,-9.671756
-0.5913678,-9.246407,-3.873818,51.41985,3.572519,-16.1145
1.886631,-6.823475,-1.426944,-47.0916,26.26718,18.0
-1.510741,-11.16177,-1.683124,25.29771,9.916031,10.16794
-1.098939,-11.36528,-2.118869,-37.1832,-6.374046,1.618321
0.6775591,-10.90559,-6.452374,17.66412,19.58779,10.66412
-0.7996634,-5.427655,-3.29921,22.92366,-20.59542,-3.022901
-0.2059013,-12.718,-4.237737,-39.32061,29.39695,-8.40458
-2.183512,-7.460332,-3.117251,53.58779,5.946565,12.12977
-1.505953,-9.241618,-2.097321,-39.43512,-12.07634,-13.51145
-0.1316811,-10.37647,-2.171541,18.03053,28.87786,-2.992366
